{"id": "179626", "url": "https://fevir.net/resources/Citation/179626", "meta": {"profile": ["http://hl7.org/fhir/uv/ebm/StructureDefinition/journal-article-citation"], "versionId": "20", "lastUpdated": "2025-10-13T12:34:35.118Z"}, "title": "22056152 Combined androgen deprivation therapy and radiation therapy for locally advanced prostate cancer: a randomised, phase 3 trial.", "author": [{"name": "Computable Publishing\u00ae: MEDLINE-to-FEvIR Converter"}], "status": "active", "contact": [{"telecom": [{"value": "support@computablepublishing.com", "system": "email"}]}], "contained": [{"id": "contributor0", "name": [{"given": ["Padraig"], "family": "Warde"}], "resourceType": "Practitioner"}, {"id": "contributor1", "name": [{"given": ["Malcolm"], "family": "Mason"}], "resourceType": "Practitioner"}, {"id": "contributor2", "name": [{"given": ["Keyue"], "family": "Ding"}], "resourceType": "Practitioner"}, {"id": "contributor3", "name": [{"given": ["Peter"], "family": "Kirkbride"}], "resourceType": "Practitioner"}, {"id": "contributor4", "name": [{"given": ["Michael"], "family": "Brundage"}], "resourceType": "Practitioner"}, {"id": "contributor5", "name": [{"given": ["Richard"], "family": "Cowan"}], "resourceType": "Practitioner"}, {"id": "contributor6", "name": [{"given": ["Mary"], "family": "Gospodarowicz"}], "resourceType": "Practitioner"}, {"id": "contributor7", "name": [{"given": ["Karen"], "family": "Sanders"}], "resourceType": "Practitioner"}, {"id": "contributor8", "name": [{"given": ["Edmund"], "family": "Kostashuk"}], "resourceType": "Practitioner"}, {"id": "contributor9", "name": [{"given": ["Greg"], "family": "Swanson"}], "resourceType": "Practitioner"}, {"id": "contributor10", "name": [{"given": ["Jim"], "family": "Barber"}], "resourceType": "Practitioner"}, {"id": "contributor11", "name": [{"given": ["Andrea"], "family": "Hiltz"}], "resourceType": "Practitioner"}, {"id": "contributor12", "name": [{"given": ["Mahesh K B"], "family": "Parmar"}], "resourceType": "Practitioner"}, {"id": "contributor13", "name": [{"given": ["Jinka"], "family": "Sathya"}], "resourceType": "Practitioner"}, {"id": "contributor14", "name": [{"given": ["John"], "family": "Anderson"}], "resourceType": "Practitioner"}, {"id": "contributor15", "name": [{"given": ["Charles"], "family": "Hayter"}], "resourceType": "Practitioner"}, {"id": "contributor16", "name": [{"given": ["John"], "family": "Hetherington"}], "resourceType": "Practitioner"}, {"id": "contributor17", "name": [{"given": ["Matthew R"], "family": "Sydes"}], "resourceType": "Practitioner"}, {"id": "contributor18", "name": [{"given": ["Wendy"], "family": "Parulekar"}], "resourceType": "Practitioner"}, {"id": "contributor19", "name": "NCIC CTG PR.3/MRC UK PR07 investigators", "resourceType": "Organization"}, {"id": "meshHeading0", "content": [{"type": {"text": "components (if present) include qualifier codings", "coding": [{"code": "mesh-heading", "system": "http://terminology.hl7.org/CodeSystem/cited-artifact-classification-type", "display": "MeSH heading"}]}, "component": [{"type": {"text": "qualifier"}, "classifier": [{"text": "is not a major topic"}]}, {"type": {"text": "qualifier"}, "component": [{"type": {"text": "is Major topic"}, "classifier": [{"coding": [{"code": "C49487", "system": "http://ncicb.nci.nih.gov/xml/owl/EVS/Thesaurus.owl", "display": "No"}]}]}], "classifier": [{"coding": [{"code": "Q000401", "system": "https://www.nlm.nih.gov/mesh", "display": "mortality"}]}]}, {"type": {"text": "qualifier"}, "component": [{"type": {"text": "is Major topic"}, "classifier": [{"coding": [{"code": "C49487", "system": "http://ncicb.nci.nih.gov/xml/owl/EVS/Thesaurus.owl", "display": "No"}]}]}], "classifier": [{"coding": [{"code": "Q000532", "system": "https://www.nlm.nih.gov/mesh", "display": "radiotherapy"}]}]}, {"type": {"text": "qualifier"}, "component": [{"type": {"text": "is Major topic"}, "classifier": [{"coding": [{"code": "C49488", "system": "http://ncicb.nci.nih.gov/xml/owl/EVS/Thesaurus.owl", "display": "Yes"}]}]}], "classifier": [{"coding": [{"code": "Q000628", "system": "https://www.nlm.nih.gov/mesh", "display": "therapy"}]}]}], "classifier": [{"coding": [{"code": "D000230", "system": "https://www.nlm.nih.gov/mesh", "display": "Adenocarcinoma", "userSelected": false}]}], "freeToShare": true}, {"type": {"text": "components (if present) include qualifier codings", "coding": [{"code": "mesh-heading", "system": "http://terminology.hl7.org/CodeSystem/cited-artifact-classification-type", "display": "MeSH heading"}]}, "component": [{"type": {"text": "qualifier"}, "classifier": [{"text": "is not a major topic"}]}], "classifier": [{"coding": [{"code": "D000369", "system": "https://www.nlm.nih.gov/mesh", "display": "Aged, 80 and over", "userSelected": false}]}], "freeToShare": true}, {"type": {"text": "components (if present) include qualifier codings", "coding": [{"code": "mesh-heading", "system": "http://terminology.hl7.org/CodeSystem/cited-artifact-classification-type", "display": "MeSH heading"}]}, "component": [{"type": {"text": "qualifier"}, "classifier": [{"text": "is not a major topic"}]}, {"type": {"text": "qualifier"}, "component": [{"type": {"text": "is Major topic"}, "classifier": [{"coding": [{"code": "C49487", "system": "http://ncicb.nci.nih.gov/xml/owl/EVS/Thesaurus.owl", "display": "No"}]}]}], "classifier": [{"coding": [{"code": "Q000009", "system": "https://www.nlm.nih.gov/mesh", "display": "adverse effects"}]}]}, {"type": {"text": "qualifier"}, "component": [{"type": {"text": "is Major topic"}, "classifier": [{"coding": [{"code": "C49488", "system": "http://ncicb.nci.nih.gov/xml/owl/EVS/Thesaurus.owl", "display": "Yes"}]}]}], "classifier": [{"coding": [{"code": "Q000627", "system": "https://www.nlm.nih.gov/mesh", "display": "therapeutic use"}]}]}], "classifier": [{"coding": [{"code": "D000726", "system": "https://www.nlm.nih.gov/mesh", "display": "Androgen Antagonists", "userSelected": false}]}], "freeToShare": true}, {"type": {"text": "components (if present) include qualifier codings", "coding": [{"code": "mesh-heading", "system": "http://terminology.hl7.org/CodeSystem/cited-artifact-classification-type", "display": "MeSH heading"}]}, "component": [{"type": {"text": "qualifier"}, "classifier": [{"text": "is not a major topic"}]}], "classifier": [{"coding": [{"code": "D003131", "system": "https://www.nlm.nih.gov/mesh", "display": "Combined Modality Therapy", "userSelected": false}]}], "freeToShare": true}, {"type": {"text": "components (if present) include qualifier codings", "coding": [{"code": "mesh-heading", "system": "http://terminology.hl7.org/CodeSystem/cited-artifact-classification-type", "display": "MeSH heading"}]}, "component": [{"type": {"text": "qualifier"}, "classifier": [{"text": "is not a major topic"}]}, {"type": {"text": "qualifier"}, "component": [{"type": {"text": "is Major topic"}, "classifier": [{"coding": [{"code": "C49488", "system": "http://ncicb.nci.nih.gov/xml/owl/EVS/Thesaurus.owl", "display": "Yes"}]}]}], "classifier": [{"coding": [{"code": "Q000819", "system": "https://www.nlm.nih.gov/mesh", "display": "agonists"}]}]}], "classifier": [{"coding": [{"code": "D007987", "system": "https://www.nlm.nih.gov/mesh", "display": "Gonadotropin-Releasing Hormone", "userSelected": false}]}], "freeToShare": true}, {"type": {"text": "components (if present) include qualifier codings", "coding": [{"code": "mesh-heading", "system": "http://terminology.hl7.org/CodeSystem/cited-artifact-classification-type", "display": "MeSH heading"}]}, "component": [{"type": {"text": "qualifier"}, "classifier": [{"text": "is not a major topic"}]}], "classifier": [{"coding": [{"code": "D006801", "system": "https://www.nlm.nih.gov/mesh", "display": "Humans", "userSelected": false}]}], "freeToShare": true}, {"type": {"text": "components (if present) include qualifier codings", "coding": [{"code": "mesh-heading", "system": "http://terminology.hl7.org/CodeSystem/cited-artifact-classification-type", "display": "MeSH heading"}]}, "component": [{"type": {"text": "qualifier"}, "classifier": [{"text": "is not a major topic"}]}], "classifier": [{"coding": [{"code": "D008297", "system": "https://www.nlm.nih.gov/mesh", "display": "Male", "userSelected": false}]}], "freeToShare": true}, {"type": {"text": "components (if present) include qualifier codings", "coding": [{"code": "mesh-heading", "system": "http://terminology.hl7.org/CodeSystem/cited-artifact-classification-type", "display": "MeSH heading"}]}, "component": [{"type": {"text": "qualifier"}, "classifier": [{"text": "is not a major topic"}]}], "classifier": [{"coding": [{"code": "D009919", "system": "https://www.nlm.nih.gov/mesh", "display": "Orchiectomy", "userSelected": false}]}], "freeToShare": true}, {"type": {"text": "components (if present) include qualifier codings", "coding": [{"code": "mesh-heading", "system": "http://terminology.hl7.org/CodeSystem/cited-artifact-classification-type", "display": "MeSH heading"}]}, "component": [{"type": {"text": "qualifier"}, "classifier": [{"text": "is not a major topic"}]}, {"type": {"text": "qualifier"}, "component": [{"type": {"text": "is Major topic"}, "classifier": [{"coding": [{"code": "C49487", "system": "http://ncicb.nci.nih.gov/xml/owl/EVS/Thesaurus.owl", "display": "No"}]}]}], "classifier": [{"coding": [{"code": "Q000401", "system": "https://www.nlm.nih.gov/mesh", "display": "mortality"}]}]}, {"type": {"text": "qualifier"}, "component": [{"type": {"text": "is Major topic"}, "classifier": [{"coding": [{"code": "C49487", "system": "http://ncicb.nci.nih.gov/xml/owl/EVS/Thesaurus.owl", "display": "No"}]}]}], "classifier": [{"coding": [{"code": "Q000532", "system": "https://www.nlm.nih.gov/mesh", "display": "radiotherapy"}]}]}, {"type": {"text": "qualifier"}, "component": [{"type": {"text": "is Major topic"}, "classifier": [{"coding": [{"code": "C49488", "system": "http://ncicb.nci.nih.gov/xml/owl/EVS/Thesaurus.owl", "display": "Yes"}]}]}], "classifier": [{"coding": [{"code": "Q000628", "system": "https://www.nlm.nih.gov/mesh", "display": "therapy"}]}]}], "classifier": [{"coding": [{"code": "D011471", "system": "https://www.nlm.nih.gov/mesh", "display": "Prostatic Neoplasms", "userSelected": false}]}], "freeToShare": true}, {"type": {"text": "components (if present) include qualifier codings", "coding": [{"code": "mesh-heading", "system": "http://terminology.hl7.org/CodeSystem/cited-artifact-classification-type", "display": "MeSH heading"}]}, "component": [{"type": {"text": "qualifier"}, "classifier": [{"text": "is not a major topic"}]}], "classifier": [{"coding": [{"code": "D011788", "system": "https://www.nlm.nih.gov/mesh", "display": "Quality of Life", "userSelected": false}]}], "freeToShare": true}, {"type": {"text": "components (if present) include qualifier codings", "coding": [{"code": "mesh-heading", "system": "http://terminology.hl7.org/CodeSystem/cited-artifact-classification-type", "display": "MeSH heading"}]}, "component": [{"type": {"text": "qualifier"}, "classifier": [{"text": "is not a major topic"}]}, {"type": {"text": "qualifier"}, "component": [{"type": {"text": "is Major topic"}, "classifier": [{"coding": [{"code": "C49487", "system": "http://ncicb.nci.nih.gov/xml/owl/EVS/Thesaurus.owl", "display": "No"}]}]}], "classifier": [{"coding": [{"code": "Q000009", "system": "https://www.nlm.nih.gov/mesh", "display": "adverse effects"}]}]}], "classifier": [{"coding": [{"code": "D011878", "system": "https://www.nlm.nih.gov/mesh", "display": "Radiotherapy", "userSelected": false}]}], "freeToShare": true}, {"type": {"text": "components (if present) include qualifier codings", "coding": [{"code": "mesh-heading", "system": "http://terminology.hl7.org/CodeSystem/cited-artifact-classification-type", "display": "MeSH heading"}]}, "component": [{"type": {"text": "qualifier"}, "classifier": [{"text": "is not a major topic"}]}], "classifier": [{"coding": [{"code": "D015996", "system": "https://www.nlm.nih.gov/mesh", "display": "Survival Rate", "userSelected": false}]}], "freeToShare": true}], "resourceType": "ArtifactAssessment", "artifactReference": {"type": "Citation", "reference": "#"}}], "copyright": "https://creativecommons.org/licenses/by-nc-sa/4.0/", "extension": [{"url": "http://hl7.org/fhir/uv/ebm/StructureDefinition/artifact-publication-status", "valueCodeableConcept": {"coding": [{"code": "active", "system": "http://terminology.hl7.org/CodeSystem/cited-artifact-status-type", "display": "Active"}]}}], "publisher": "Computable Publishing LLC", "identifier": [{"type": {"text": "FEvIR Object Identifier", "coding": [{"system": "http://terminology.hl7.org/CodeSystem/v2-0203", "code": "ACSN", "display": "Accession ID"}]}, "value": "179626", "system": "https://fevir.net/FOI", "assigner": {"display": "Computable Publishing LLC"}}, {"value": "22056152", "system": "https://pubmed.ncbi.nlm.nih.gov"}], "statusDate": [{"period": {"end": "2011-11-08T06:00:00.000Z"}, "activity": {"coding": [{"code": "pubmed-pubstatus-entrez", "system": "http://hl7.org/fhir/citation-status-type", "display": "PubMed Pubstatus of Entrez"}]}}, {"period": {"end": "2011-11-08T06:00:00.000Z"}, "activity": {"coding": [{"code": "pubmed-pubstatus-pubmed", "system": "http://hl7.org/fhir/citation-status-type", "display": "PubMed Pubstatus of Pubmed"}]}}, {"period": {"end": "2012-01-04T06:00:00.000Z"}, "activity": {"coding": [{"code": "pubmed-pubstatus-medline", "system": "http://hl7.org/fhir/citation-status-type", "display": "PubMed Pubstatus of Medline"}]}}, {"period": {"end": "2011-12-17"}, "activity": {"coding": [{"code": "pubmed-pubstatus-pmc-release", "system": "http://hl7.org/fhir/citation-status-type", "display": "PubMed Pubstatus of PMC release"}]}}], "useContext": [{"code": {"code": "fevir-platform-use", "system": "http://terminology.hl7.org/CodeSystem/citation-classification-type", "display": "FEvIR Platform Use"}, "valueCodeableConcept": {"coding": [{"code": "medline-base", "system": "http://terminology.hl7.org/CodeSystem/citation-artifact-classifier", "display": "Medline Base", "userSelected": false}]}}], "approvalDate": "2012-01-03", "currentState": [{"coding": [{"code": "medline-medline", "system": "http://hl7.org/fhir/citation-status-type", "display": "Medline Citation Status of Medline"}]}, {"coding": [{"code": "pubmed-publication-status-ppublish", "system": "http://hl7.org/fhir/citation-status-type", "display": "PubMed PublicationStatus of ppublish"}]}], "resourceType": "Citation", "citedArtifact": {"title": [{"text": "Combined androgen deprivation therapy and radiation therapy for locally advanced prostate cancer: a randomised, phase 3 trial.", "type": [{"coding": [{"code": "primary", "system": "http://terminology.hl7.org/CodeSystem/title-type", "display": "Primary title"}]}], "language": {"coding": [{"system": "urn:ietf:bcp:47", "code": "en", "display": "English"}]}}], "abstract": [{"text": "**BACKGROUND:** Whether the addition of radiation therapy (RT) improves overall survival in men with locally advanced prostate cancer managed with androgen deprivation therapy (ADT) is unclear. Our aim was to compare outcomes in such patients with locally advanced prostate cancer.\n**METHODS:** Patients with: locally advanced (T3 or T4) prostate cancer (n=1057); or organ-confined disease (T2) with either a prostate-specific antigen (PSA) concentration more than 40 ng/mL (n=119) or PSA concentration more than 20 ng/mL and a Gleason score of 8 or higher (n=25), were randomly assigned (done centrally with stratification and dynamic minimisation, not masked) to receive lifelong ADT and RT (65-69 Gy to the prostate and seminal vesicles, 45 Gy to the pelvic nodes). The primary endpoint was overall survival. The results presented here are of an interim analysis planned for when two-thirds of the events for the final analysis were recorded. All efficacy analyses were done by intention to treat and were based on data from all patients. This trial is registered at controlledtrials.com as ISRCTN24991896 and Clinicaltrials.gov as NCT00002633.\n**RESULTS:** Between 1995 and 2005, 1205 patients were randomly assigned (602 in the ADT only group and 603 in the ADT and RT group); median follow-up was 6\u00b70 years (IQR 4\u00b74-8\u00b70). At the time of analysis, a total of 320 patients had died, 175 in the ADT only group and 145 in the ADT and RT group. The addition of RT to ADT improved overall survival at 7 years (74%, 95% CI 70-78 vs 66%, 60-70; hazard ratio [HR] 0\u00b777, 95% CI 0\u00b761-0\u00b798, p=0\u00b7033). Both toxicity and health-related quality-of-life results showed a small effect of RT on late gastrointestinal toxicity (rectal bleeding grade &gt;3, three patients (0\u00b75%) in the ADT only group, two (0\u00b73%) in the ADT and RT group; diarrhoea grade &gt;3, four patients (0\u00b77%) vs eight (1\u00b73%); urinary toxicity grade &gt;3, 14 patients (2\u00b73%) in both groups).\n**INTERPRETATION:** The benefits of combined modality treatment--ADT and RT--should be discussed with all patients with locally advanced prostate cancer.\n**FUNDING:** Canadian Cancer Society Research Institute, US National Cancer Institute, and UK Medical Research Council.", "type": {"coding": [{"code": "primary-human-use", "system": "http://terminology.hl7.org/CodeSystem/cited-artifact-abstract-type", "display": "Primary human use"}]}, "copyright": "Copyright \u00a9 2011 Elsevier Ltd. All rights reserved."}], "relatesTo": [{"type": "cites", "citation": "Ferlay J, Shin HR, Bray F, Forman D, Mathers C, Parkin DM. Estimates of worldwide burden of cancer in 2008: GLOBOCAN 2008. Int J Cancer. 2008;127:2893\u20132917.", "classifier": [{"coding": [{"code": "D016428", "system": "http://hl7.org/fhir/citation-artifact-classifier", "display": "Journal Article"}]}], "targetReference": {"type": "Citation", "reference": "https://pubmed.ncbi.nlm.nih.gov/21351269/", "identifier": {"value": "21351269", "system": "https://pubmed.ncbi.nlm.nih.gov", "assigner": {"display": "NLM"}}}}, {"type": "cites", "citation": "Jemal A, Siegel R, Xu J, Ward E. Cancer statistics, 2010. CA Cancer J Clin. 2010;60:277\u2013300.", "classifier": [{"coding": [{"code": "D016428", "system": "http://hl7.org/fhir/citation-artifact-classifier", "display": "Journal Article"}]}], "targetReference": {"type": "Citation", "reference": "https://pubmed.ncbi.nlm.nih.gov/20610543/", "identifier": {"value": "20610543", "system": "https://pubmed.ncbi.nlm.nih.gov", "assigner": {"display": "NLM"}}}}, {"type": "cites", "citation": "Cooperberg MR, Moul JW, Carroll PR. The changing face of prostate cancer. J Clin Oncol. 2005;23:8146\u20138151.", "classifier": [{"coding": [{"code": "D016428", "system": "http://hl7.org/fhir/citation-artifact-classifier", "display": "Journal Article"}]}], "targetReference": {"type": "Citation", "reference": "https://pubmed.ncbi.nlm.nih.gov/16278465/", "identifier": {"value": "16278465", "system": "https://pubmed.ncbi.nlm.nih.gov", "assigner": {"display": "NLM"}}}}, {"type": "cites", "citation": "Eastham JA, Evans CP, Zietman A. What is the optimal management of high risk, clinically localized prostate cancer? Urol Oncol. 2010;28:557\u2013567.", "classifier": [{"coding": [{"code": "D016428", "system": "http://hl7.org/fhir/citation-artifact-classifier", "display": "Journal Article"}]}], "targetReference": {"type": "Citation", "reference": "https://pubmed.ncbi.nlm.nih.gov/20816616/", "identifier": {"value": "20816616", "system": "https://pubmed.ncbi.nlm.nih.gov", "assigner": {"display": "NLM"}}}}, {"type": "cites", "citation": "Fellows GJ, Clark PB, Beynon LL. Treatment of advanced localised prostatic cancer by orchiectomy, radiotherapy, or combined treatment. A Medical Research Council Study. Urological Cancer Working Party\u2014Subgroup on Prostatic Cancer. Br J Urol. 1992;70:304\u2013309.", "classifier": [{"coding": [{"code": "D016428", "system": "http://hl7.org/fhir/citation-artifact-classifier", "display": "Journal Article"}]}], "targetReference": {"type": "Citation", "reference": "https://pubmed.ncbi.nlm.nih.gov/1422689/", "identifier": {"value": "1422689", "system": "https://pubmed.ncbi.nlm.nih.gov", "assigner": {"display": "NLM"}}}}, {"type": "cites", "citation": "Pocock SJ, Simon R. Sequential treatment assignment with balancing for prognostic factors in the controlled clinical trial. Biometrics. 1975;31:103\u2013115.", "classifier": [{"coding": [{"code": "D016428", "system": "http://hl7.org/fhir/citation-artifact-classifier", "display": "Journal Article"}]}], "targetReference": {"type": "Citation", "reference": "https://pubmed.ncbi.nlm.nih.gov/1100130/", "identifier": {"value": "1100130", "system": "https://pubmed.ncbi.nlm.nih.gov", "assigner": {"display": "NLM"}}}}, {"type": "cites", "citation": "Aaronson NK, Ahmedzai S, Bergman B. The European Organization for Research and Treatment of Cancer QLQ-C30: a quality-of-life instrument for use in international clinical trials in oncology. J Natl Cancer Inst. 1993;85:365\u2013376.", "classifier": [{"coding": [{"code": "D016428", "system": "http://hl7.org/fhir/citation-artifact-classifier", "display": "Journal Article"}]}], "targetReference": {"type": "Citation", "reference": "https://pubmed.ncbi.nlm.nih.gov/8433390/", "identifier": {"value": "8433390", "system": "https://pubmed.ncbi.nlm.nih.gov", "assigner": {"display": "NLM"}}}}, {"type": "cites", "citation": "Esper P, Mo F, Chodak G, Sinner M, Cella D, Pienta KJ. Measuring quality of life in men with prostate cancer using the functional assessment of cancer therapy-prostate instrument. Urology. 1997;50:920\u2013928.", "classifier": [{"coding": [{"code": "D016428", "system": "http://hl7.org/fhir/citation-artifact-classifier", "display": "Journal Article"}]}], "targetReference": {"type": "Citation", "reference": "https://pubmed.ncbi.nlm.nih.gov/9426724/", "identifier": {"value": "9426724", "system": "https://pubmed.ncbi.nlm.nih.gov", "assigner": {"display": "NLM"}}}}, {"type": "cites", "citation": "Monti AF, Ostinelli A, Frigerio M. An ICRU 50 radiotherapy treatment chart. Radiother Oncol. 1995;35:145\u2013150.", "classifier": [{"coding": [{"code": "D016428", "system": "http://hl7.org/fhir/citation-artifact-classifier", "display": "Journal Article"}]}], "targetReference": {"type": "Citation", "reference": "https://pubmed.ncbi.nlm.nih.gov/7569023/", "identifier": {"value": "7569023", "system": "https://pubmed.ncbi.nlm.nih.gov", "assigner": {"display": "NLM"}}}}, {"type": "cites", "citation": "Bolla M, van Tienhoven G, Warde P. External irradiation with or without long-term androgen suppression for prostate cancer with high metastatic risk: 10-year results of an EORTC randomised study. Lancet Oncol. 2010;11:1066\u20131073.", "classifier": [{"coding": [{"code": "D016428", "system": "http://hl7.org/fhir/citation-artifact-classifier", "display": "Journal Article"}]}], "targetReference": {"type": "Citation", "reference": "https://pubmed.ncbi.nlm.nih.gov/20933466/", "identifier": {"value": "20933466", "system": "https://pubmed.ncbi.nlm.nih.gov", "assigner": {"display": "NLM"}}}}, {"type": "cites", "citation": "Bolla M, Gonzalez D, Warde P. Improved survival in patients with locally advanced prostate cancer treated with radiotherapy and goserelin. N Engl J Med. 1997;337:295\u2013300.", "classifier": [{"coding": [{"code": "D016428", "system": "http://hl7.org/fhir/citation-artifact-classifier", "display": "Journal Article"}]}], "targetReference": {"type": "Citation", "reference": "https://pubmed.ncbi.nlm.nih.gov/9233866/", "identifier": {"value": "9233866", "system": "https://pubmed.ncbi.nlm.nih.gov", "assigner": {"display": "NLM"}}}}, {"type": "cites", "citation": "Gray R. A class of K-sample tests for comparing the cumulative incidence of a competing risk. Ann Stat. 1988;16:1141\u20131154."}, {"type": "cites", "citation": "Lan G, DeMets D. Discrete sequential boundaries for clinical trials. Biometrika. 1983;70:659\u2013663."}, {"type": "cites", "citation": "Widmark A, Klepp O, Solberg A. Endocrine treatment, with or without radiotherapy, in locally advanced prostate cancer (SPCG-7/SFUO-3): an open randomised phase III trial. Lancet. 2009;373:301\u2013308.", "classifier": [{"coding": [{"code": "D016428", "system": "http://hl7.org/fhir/citation-artifact-classifier", "display": "Journal Article"}]}], "targetReference": {"type": "Citation", "reference": "https://pubmed.ncbi.nlm.nih.gov/19091394/", "identifier": {"value": "19091394", "system": "https://pubmed.ncbi.nlm.nih.gov", "assigner": {"display": "NLM"}}}}, {"type": "cites", "citation": "Cella D, Nichol MB, Eton D, Nelson JB, Mulani P. Estimating clinically meaningful changes for the Functional Assessment of Cancer Therapy\u2014prostate: results from a clinical trial of patients with metastatic hormone-refractory prostate cancer. Value Health. 2009;12:124\u2013129.", "classifier": [{"coding": [{"code": "D016428", "system": "http://hl7.org/fhir/citation-artifact-classifier", "display": "Journal Article"}]}], "targetReference": {"type": "Citation", "reference": "https://pubmed.ncbi.nlm.nih.gov/18647260/", "identifier": {"value": "18647260", "system": "https://pubmed.ncbi.nlm.nih.gov", "assigner": {"display": "NLM"}}}}, {"type": "cites", "citation": "Osoba D, Bezjak A, Brundage M, Zee B, Tu D, Pater J. Analysis and interpretation of health-related quality-of-life data from clinical trials: basic approach of The National Cancer Institute of Canada Clinical Trials Group. Eur J Cancer. 2005;41:280\u2013287.", "classifier": [{"coding": [{"code": "D016428", "system": "http://hl7.org/fhir/citation-artifact-classifier", "display": "Journal Article"}]}], "targetReference": {"type": "Citation", "reference": "https://pubmed.ncbi.nlm.nih.gov/15661554/", "identifier": {"value": "15661554", "system": "https://pubmed.ncbi.nlm.nih.gov", "assigner": {"display": "NLM"}}}}, {"type": "cites", "citation": "Bolla M, de Reijke TM, van Tienhoven G. Duration of androgen suppression in the treatment of prostate cancer. N Engl J Med. 2009;360:2516\u20132527.", "classifier": [{"coding": [{"code": "D016428", "system": "http://hl7.org/fhir/citation-artifact-classifier", "display": "Journal Article"}]}], "targetReference": {"type": "Citation", "reference": "https://pubmed.ncbi.nlm.nih.gov/19516032/", "identifier": {"value": "19516032", "system": "https://pubmed.ncbi.nlm.nih.gov", "assigner": {"display": "NLM"}}}}, {"type": "cites", "citation": "Horwitz EM, Bae K, Hanks GE. Ten-year follow-up of radiation therapy oncology group protocol 92-02: a phase III trial of the duration of elective androgen deprivation in locally advanced prostate cancer. J Clin Oncol. 2008;26:2497\u20132504.", "classifier": [{"coding": [{"code": "D016428", "system": "http://hl7.org/fhir/citation-artifact-classifier", "display": "Journal Article"}]}], "targetReference": {"type": "Citation", "reference": "https://pubmed.ncbi.nlm.nih.gov/18413638/", "identifier": {"value": "18413638", "system": "https://pubmed.ncbi.nlm.nih.gov", "assigner": {"display": "NLM"}}}}, {"type": "cites", "citation": "Alibhai SM, Duong-Hua M, Cheung AM. Fracture types and risk factors in men with prostate cancer on androgen deprivation therapy: a matched cohort study of 19,079 men. J Urol. 2010;184:918\u2013923.", "classifier": [{"coding": [{"code": "D016428", "system": "http://hl7.org/fhir/citation-artifact-classifier", "display": "Journal Article"}]}], "targetReference": {"type": "Citation", "reference": "https://pubmed.ncbi.nlm.nih.gov/20643458/", "identifier": {"value": "20643458", "system": "https://pubmed.ncbi.nlm.nih.gov", "assigner": {"display": "NLM"}}}}, {"type": "cites", "citation": "Alibhai SM, Mohamedali HZ. Cardiac and cognitive effects of androgen deprivation therapy: are they real? Curr Oncol. 2010;17(suppl 2):S55\u2013S64.", "classifier": [{"coding": [{"code": "D016428", "system": "http://hl7.org/fhir/citation-artifact-classifier", "display": "Journal Article"}]}], "targetReference": {"type": "Citation", "reference": "https://pubmed.ncbi.nlm.nih.gov/20882135/", "identifier": {"value": "20882135", "system": "https://pubmed.ncbi.nlm.nih.gov", "assigner": {"display": "NLM"}}}}, {"type": "cites", "citation": "Keating NL, O'Malley AJ, Smith MR. Diabetes and cardiovascular disease during androgen deprivation therapy for prostate cancer. J Clin Oncol. 2006;24:4448\u20134456.", "classifier": [{"coding": [{"code": "D016428", "system": "http://hl7.org/fhir/citation-artifact-classifier", "display": "Journal Article"}]}], "targetReference": {"type": "Citation", "reference": "https://pubmed.ncbi.nlm.nih.gov/16983113/", "identifier": {"value": "16983113", "system": "https://pubmed.ncbi.nlm.nih.gov", "assigner": {"display": "NLM"}}}}, {"type": "cites", "citation": "Shahinian VB, Kuo YF, Freeman JL, Goodwin JS. Risk of fracture after androgen deprivation for prostate cancer. N Engl J Med. 2005;352:154\u2013164.", "classifier": [{"coding": [{"code": "D016428", "system": "http://hl7.org/fhir/citation-artifact-classifier", "display": "Journal Article"}]}], "targetReference": {"type": "Citation", "reference": "https://pubmed.ncbi.nlm.nih.gov/15647578/", "identifier": {"value": "15647578", "system": "https://pubmed.ncbi.nlm.nih.gov", "assigner": {"display": "NLM"}}}}, {"type": "cites", "citation": "McMullen KP, Lee WR. A structured literature review to determine the use of the American Society for Therapeutic Radiology and Oncology consensus definition of biochemical failure. Urology. 2003;61:391\u2013396.", "classifier": [{"coding": [{"code": "D016428", "system": "http://hl7.org/fhir/citation-artifact-classifier", "display": "Journal Article"}]}], "targetReference": {"type": "Citation", "reference": "https://pubmed.ncbi.nlm.nih.gov/12597954/", "identifier": {"value": "12597954", "system": "https://pubmed.ncbi.nlm.nih.gov", "assigner": {"display": "NLM"}}}}, {"type": "cites", "citation": "Kuban DA, Tucker SL, Dong L. Long-term results of the M D Anderson randomized dose-escalation trial for prostate cancer. Int J Radiat Oncol Biol Phys. 2008;70:67\u201374.", "classifier": [{"coding": [{"code": "D016428", "system": "http://hl7.org/fhir/citation-artifact-classifier", "display": "Journal Article"}]}], "targetReference": {"type": "Citation", "reference": "https://pubmed.ncbi.nlm.nih.gov/17765406/", "identifier": {"value": "17765406", "system": "https://pubmed.ncbi.nlm.nih.gov", "assigner": {"display": "NLM"}}}}, {"type": "cites", "citation": "Zietman AL, DeSilvio ML, Slater JD. Comparison of conventional-dose vs high-dose conformal radiation therapy in clinically localized adenocarcinoma of the prostate: a randomized controlled trial. JAMA. 2005;294:1233\u20131239.", "classifier": [{"coding": [{"code": "D016428", "system": "http://hl7.org/fhir/citation-artifact-classifier", "display": "Journal Article"}]}], "targetReference": {"type": "Citation", "reference": "https://pubmed.ncbi.nlm.nih.gov/16160131/", "identifier": {"value": "16160131", "system": "https://pubmed.ncbi.nlm.nih.gov", "assigner": {"display": "NLM"}}}}, {"type": "cites", "citation": "Rosenthal SA, Sandler HM. Treatment strategies for high-risk locally advanced prostate cancer. Nat Rev Urol. 2010;7:31\u201338.", "classifier": [{"coding": [{"code": "D016428", "system": "http://hl7.org/fhir/citation-artifact-classifier", "display": "Journal Article"}]}], "targetReference": {"type": "Citation", "reference": "https://pubmed.ncbi.nlm.nih.gov/20062072/", "identifier": {"value": "20062072", "system": "https://pubmed.ncbi.nlm.nih.gov", "assigner": {"display": "NLM"}}}}, {"type": "cites", "citation": "Cooperberg MR, Broering JM, Carroll PR. Time trends and local variation in primary treatment of localized prostate cancer. J Clin Oncol. 2010;28:1117\u20131123.", "classifier": [{"coding": [{"code": "D016428", "system": "http://hl7.org/fhir/citation-artifact-classifier", "display": "Journal Article"}]}], "targetReference": {"type": "Citation", "reference": "https://pubmed.ncbi.nlm.nih.gov/20124165/", "identifier": {"value": "20124165", "system": "https://pubmed.ncbi.nlm.nih.gov", "assigner": {"display": "NLM"}}}}, {"type": "comment-in", "citation": "Lancet. 2011 Dec 17;378(9809):2056-7. doi: 10.1016/S0140-6736(11)61254-3.", "classifier": [{"coding": [{"code": "D016420", "system": "https://www.nlm.nih.gov/mesh", "display": "Comment", "userSelected": false}]}], "targetReference": {"reference": "https://pubmed.ncbi.nlm.nih.gov/22056154/", "identifier": {"value": "22056154", "system": "https://pubmed.ncbi.nlm.nih.gov", "assigner": {"display": "NLM"}}}}, {"type": "comment-in", "citation": "Ann Intern Med. 2012 Apr 17;156(8):JC4-05, JC4-04. doi: 10.7326/0003-4819-156-8-201204170-02005.", "classifier": [{"coding": [{"code": "D016420", "system": "https://www.nlm.nih.gov/mesh", "display": "Comment", "userSelected": false}]}], "targetReference": {"reference": "https://pubmed.ncbi.nlm.nih.gov/22508745/", "identifier": {"value": "22508745", "system": "https://pubmed.ncbi.nlm.nih.gov", "assigner": {"display": "NLM"}}}}, {"type": "comment-in", "citation": "J Urol. 2012 Sep;188(3):810. doi: 10.1016/j.juro.2012.05.065.", "classifier": [{"coding": [{"code": "D016420", "system": "https://www.nlm.nih.gov/mesh", "display": "Comment", "userSelected": false}]}], "targetReference": {"reference": "https://pubmed.ncbi.nlm.nih.gov/22883758/", "identifier": {"value": "22883758", "system": "https://pubmed.ncbi.nlm.nih.gov", "assigner": {"display": "NLM"}}}}, {"type": "comment-in", "citation": "Eur Urol. 2012 Nov;62(5):932-3. doi: 10.1016/j.eururo.2012.08.041.", "classifier": [{"coding": [{"code": "D016420", "system": "https://www.nlm.nih.gov/mesh", "display": "Comment", "userSelected": false}]}], "targetReference": {"reference": "https://pubmed.ncbi.nlm.nih.gov/23036346/", "identifier": {"value": "23036346", "system": "https://pubmed.ncbi.nlm.nih.gov", "assigner": {"display": "NLM"}}}}], "identifier": [{"value": "22056152", "system": "https://pubmed.ncbi.nlm.nih.gov"}, {"value": "PMC3243932", "system": "https://www.ncbi.nlm.nih.gov/pmc/"}, {"value": "10.1016/S0140-6736(11)61095-7", "system": "https://doi.org"}, {"type": {"text": "pii", "coding": [{"system": "http://terminology.hl7.org/CodeSystem/v2-0203", "code": "ACSN", "display": "Accession ID"}]}, "value": "S0140-6736(11)61095-7"}], "webLocation": [{"url": "https://pubmed.ncbi.nlm.nih.gov/22056152/", "classifier": [{"coding": [{"code": "abstract", "system": "http://terminology.hl7.org/CodeSystem/artifact-url-classifier", "display": "Abstract"}]}]}, {"url": "https://doi.org/10.1016/S0140-6736(11)61095-7", "classifier": [{"coding": [{"code": "doi-based", "system": "http://terminology.hl7.org/CodeSystem/artifact-url-classifier", "display": "DOI Based"}]}]}], "classification": [{"type": {"coding": [{"code": "publishing-model", "system": "http://terminology.hl7.org/CodeSystem/cited-artifact-classification-type", "display": "Publishing Model", "userSelected": false}]}, "classifier": [{"coding": [{"code": "Print-Electronic", "system": "http://terminology.hl7.org/CodeSystem/citation-artifact-classifier", "display": "Print Electronic", "userSelected": false}]}]}, {"type": {"coding": [{"code": "chemical", "system": "http://terminology.hl7.org/CodeSystem/cited-artifact-classification-type", "display": "Chemical", "userSelected": false}]}, "classifier": [{"coding": [{"code": "D000726", "system": "https://www.nlm.nih.gov/mesh", "display": "Androgen Antagonists", "userSelected": false}]}, {"coding": [{"code": "33515-09-2", "system": "https://www.cas.org/support/documentation/chemical-substances", "userSelected": false}, {"code": "D007987", "system": "https://www.nlm.nih.gov/mesh", "display": "Gonadotropin-Releasing Hormone", "userSelected": false}]}]}, {"type": {"coding": [{"code": "mesh-heading", "system": "http://terminology.hl7.org/CodeSystem/cited-artifact-classification-type", "display": "MeSH heading"}]}, "artifactAssessment": [{"type": "ArtifactAssessment", "reference": "#meshHeading0"}]}, {"type": {"coding": [{"code": "publication-type", "system": "http://terminology.hl7.org/CodeSystem/cited-artifact-classification-type", "display": "Publication type"}]}, "classifier": [{"coding": [{"code": "D017428", "system": "https://www.nlm.nih.gov/mesh", "display": "Clinical Trial, Phase III", "userSelected": false}]}, {"coding": [{"code": "D016428", "system": "https://www.nlm.nih.gov/mesh", "display": "Journal Article", "userSelected": false}]}, {"coding": [{"code": "D016448", "system": "https://www.nlm.nih.gov/mesh", "display": "Multicenter Study", "userSelected": false}]}, {"coding": [{"code": "D016449", "system": "https://www.nlm.nih.gov/mesh", "display": "Randomized Controlled Trial", "userSelected": false}]}, {"coding": [{"code": "D052061", "system": "https://www.nlm.nih.gov/mesh", "display": "Research Support, N.I.H., Extramural", "userSelected": false}]}, {"coding": [{"code": "D013485", "system": "https://www.nlm.nih.gov/mesh", "display": "Research Support, Non-U.S. Gov't", "userSelected": false}]}]}, {"type": {"coding": [{"code": "knowledge-artifact-type", "system": "http://terminology.hl7.org/CodeSystem/cited-artifact-classification-type", "display": "Knowledge Artifact Type", "userSelected": false}]}, "classifier": [{"coding": [{"code": "D016428", "system": "http://terminology.hl7.org/CodeSystem/citation-artifact-classifier", "display": "Journal Article", "userSelected": false}]}], "artifactAssessment": [{"display": "Classifier added by Computable Publishing LLC"}]}, {"type": {"coding": [{"code": "citation-subset", "system": "http://terminology.hl7.org/CodeSystem/cited-artifact-classification-type", "display": "Citation subset", "userSelected": false}]}, "classifier": [{"coding": [{"code": "IM", "system": "https://www.nlm.nih.gov/bsd/licensee/elements_descriptions.html#citationsubset", "display": "IM", "userSelected": false}]}]}], "contributorship": {"entry": [{"affiliation": [{"display": "Princess Margaret Hospital, Toronto, Canada. padraig.warde@rmp.uhn.on.ca"}], "contributor": {"type": "Practitioner", "display": "Warde P", "reference": "#contributor0"}, "forenameInitials": "P"}, {"contributor": {"type": "Practitioner", "display": "Mason M", "reference": "#contributor1"}, "forenameInitials": "M"}, {"contributor": {"type": "Practitioner", "display": "Ding K", "reference": "#contributor2"}, "forenameInitials": "K"}, {"contributor": {"type": "Practitioner", "display": "Kirkbride P", "reference": "#contributor3"}, "forenameInitials": "P"}, {"contributor": {"type": "Practitioner", "display": "Brundage M", "reference": "#contributor4"}, "forenameInitials": "M"}, {"contributor": {"type": "Practitioner", "display": "Cowan R", "reference": "#contributor5"}, "forenameInitials": "R"}, {"contributor": {"type": "Practitioner", "display": "Gospodarowicz M", "reference": "#contributor6"}, "forenameInitials": "M"}, {"contributor": {"type": "Practitioner", "display": "Sanders K", "reference": "#contributor7"}, "forenameInitials": "K"}, {"contributor": {"type": "Practitioner", "display": "Kostashuk E", "reference": "#contributor8"}, "forenameInitials": "E"}, {"contributor": {"type": "Practitioner", "display": "Swanson G", "reference": "#contributor9"}, "forenameInitials": "G"}, {"contributor": {"type": "Practitioner", "display": "Barber J", "reference": "#contributor10"}, "forenameInitials": "J"}, {"contributor": {"type": "Practitioner", "display": "Hiltz A", "reference": "#contributor11"}, "forenameInitials": "A"}, {"contributor": {"type": "Practitioner", "display": "Parmar MK", "reference": "#contributor12"}, "forenameInitials": "MK"}, {"contributor": {"type": "Practitioner", "display": "Sathya J", "reference": "#contributor13"}, "forenameInitials": "J"}, {"contributor": {"type": "Practitioner", "display": "Anderson J", "reference": "#contributor14"}, "forenameInitials": "J"}, {"contributor": {"type": "Practitioner", "display": "Hayter C", "reference": "#contributor15"}, "forenameInitials": "C"}, {"contributor": {"type": "Practitioner", "display": "Hetherington J", "reference": "#contributor16"}, "forenameInitials": "J"}, {"contributor": {"type": "Practitioner", "display": "Sydes MR", "reference": "#contributor17"}, "forenameInitials": "MR"}, {"contributor": {"type": "Practitioner", "display": "Parulekar W", "reference": "#contributor18"}, "forenameInitials": "W"}, {"contributor": {"type": "Organization", "display": "NCIC CTG PR.3/MRC UK PR07 investigators", "reference": "#contributor19"}}], "complete": true}, "publicationForm": [{"issue": "9809", "volume": "378", "pageString": "2104-11", "articleDate": "2011-12-17", "citedMedium": {"coding": [{"code": "internet", "system": "http://terminology.hl7.org/CodeSystem/cited-medium", "display": "Internet"}]}, "publishedIn": {"type": {"coding": [{"code": "D020492", "system": "http://terminology.hl7.org/CodeSystem/published-in-type", "display": "Periodical"}]}, "title": "Lancet (London, England)", "identifier": [{"type": {"text": "Electronic ISSN Type", "coding": [{"code": "Electronic", "system": "https://www.nlm.nih.gov/bsd/licensee/elements_descriptions.html#issn", "display": "Electronic"}]}, "value": "1474-547X", "system": "https://portal.issn.org"}, {"type": {"text": "ISOAbbreviation", "coding": [{"system": "http://terminology.hl7.org/CodeSystem/v2-0203", "code": "XX", "display": "Organization identifier"}]}, "value": "Lancet", "system": "https://www.issn.org/services/online-services/access-to-the-ltwa/"}, {"type": {"text": "ISSN Linking", "coding": [{"system": "http://terminology.hl7.org/CodeSystem/v2-0203", "code": "XX", "display": "Organization identifier"}]}, "value": "0140-6736", "system": "https://www.issn.org/understanding-the-issn/assignment-rules/the-issn-l-for-publications-on-multiple-media/"}, {"type": {"text": "Medline Title Abbreviation", "coding": [{"system": "http://terminology.hl7.org/CodeSystem/v2-0203", "code": "XX", "display": "Organization identifier"}]}, "value": "Lancet", "system": "https://www.nlm.nih.gov/tsd/cataloging/contructitleabbre.html"}, {"type": {"text": "NLM Unique ID", "coding": [{"system": "http://terminology.hl7.org/CodeSystem/v2-0203", "code": "XX", "display": "Organization identifier"}]}, "value": "2985213R", "system": "https://locatorplus.gov/cgi-bin/Pwebrecon.cgi?DB=local"}], "publisherLocation": "England"}}, {"articleDate": "2011-11-02", "citedMedium": {"coding": [{"code": "internet-without-issue", "system": "http://terminology.hl7.org/CodeSystem/cited-medium", "display": "Internet without issue"}]}}], "relatedIdentifier": [{"value": "ISRCTN24991896", "assigner": {"display": "ISRCTN"}}, {"value": "NCT00002633", "system": "https://clinicaltrials.gov", "assigner": {"display": "ClinicalTrials.gov"}}]}, "classification": [{"type": {"coding": [{"code": "citation-source", "system": "http://terminology.hl7.org/CodeSystem/citation-classification-type", "display": "Citation Source"}]}, "classifier": [{"text": "MEDLINE"}]}, {"type": {"coding": [{"code": "medline-owner", "system": "http://terminology.hl7.org/CodeSystem/citation-classification-type", "display": "MEDLINE Citation Owner"}]}, "classifier": [{"coding": [{"code": "NLM", "system": "https://www.nlm.nih.gov/bsd/licensee/elements_descriptions.html#owner_value", "display": "National Library of Medicine, Index Section", "userSelected": false}]}]}], "lastReviewDate": "2022-03-21", "description": "This Citation Resource is referenced in an example for the EBMonFHIR Implementation Guide."}