{"resourceType": "Citation", "meta": {"profile": ["http://hl7.org/fhir/uv/ebm/StructureDefinition/journal-article-citation"], "versionId": "12", "lastUpdated": "2025-03-27T12:29:58.346Z"}, "contained": [{"resourceType": "Practitioner", "id": "contributor0", "name": [{"family": "Amato", "given": ["Robert"]}]}, {"resourceType": "Practitioner", "id": "contributor1", "name": [{"family": "Stepankiw", "given": ["Mika"]}]}, {"resourceType": "Practitioner", "id": "contributor2", "name": [{"family": "Gonzales", "given": ["Patricia"]}]}, {"resourceType": "ArtifactAssessment", "id": "meshHeading0", "artifactReference": {"reference": "#", "type": "Citation"}, "content": [{"type": {"coding": [{"system": "http://hl7.org/fhir/cited-artifact-classification-type", "code": "mesh-heading", "display": "MeSH heading"}], "text": "components (if present) include qualifier codings"}, "classifier": [{"coding": [{"system": "https://www.nlm.nih.gov/mesh", "code": "D000230", "display": "Adenocarcinoma", "userSelected": false}]}], "freeToShare": true, "component": [{"type": {"text": "qualifier"}, "classifier": [{"text": "is not a major topic"}]}, {"type": {"text": "qualifier"}, "classifier": [{"coding": [{"system": "https://www.nlm.nih.gov/mesh", "code": "Q000188", "display": "drug therapy"}]}], "component": [{"type": {"text": "is Major topic"}, "classifier": [{"coding": [{"system": "http://ncicb.nci.nih.gov/xml/owl/EVS/Thesaurus.owl", "code": "C49488", "display": "Yes"}]}]}]}, {"type": {"text": "qualifier"}, "classifier": [{"coding": [{"system": "https://www.nlm.nih.gov/mesh", "code": "Q000378", "display": "metabolism"}]}], "component": [{"type": {"text": "is Major topic"}, "classifier": [{"coding": [{"system": "http://ncicb.nci.nih.gov/xml/owl/EVS/Thesaurus.owl", "code": "C49487", "display": "No"}]}]}]}, {"type": {"text": "qualifier"}, "classifier": [{"coding": [{"system": "https://www.nlm.nih.gov/mesh", "code": "Q000473", "display": "pathology"}]}], "component": [{"type": {"text": "is Major topic"}, "classifier": [{"coding": [{"system": "http://ncicb.nci.nih.gov/xml/owl/EVS/Thesaurus.owl", "code": "C49487", "display": "No"}]}]}]}]}, {"type": {"coding": [{"system": "http://hl7.org/fhir/cited-artifact-classification-type", "code": "mesh-heading", "display": "MeSH heading"}], "text": "components (if present) include qualifier codings"}, "classifier": [{"coding": [{"system": "https://www.nlm.nih.gov/mesh", "code": "D000368", "display": "Aged", "userSelected": false}]}], "freeToShare": true, "component": [{"type": {"text": "qualifier"}, "classifier": [{"text": "is not a major topic"}]}]}, {"type": {"coding": [{"system": "http://hl7.org/fhir/cited-artifact-classification-type", "code": "mesh-heading", "display": "MeSH heading"}], "text": "components (if present) include qualifier codings"}, "classifier": [{"coding": [{"system": "https://www.nlm.nih.gov/mesh", "code": "D000369", "display": "Aged, 80 and over", "userSelected": false}]}], "freeToShare": true, "component": [{"type": {"text": "qualifier"}, "classifier": [{"text": "is not a major topic"}]}]}, {"type": {"coding": [{"system": "http://hl7.org/fhir/cited-artifact-classification-type", "code": "mesh-heading", "display": "MeSH heading"}], "text": "components (if present) include qualifier codings"}, "classifier": [{"coding": [{"system": "https://www.nlm.nih.gov/mesh", "code": "D000726", "display": "Androgen Antagonists", "userSelected": false}]}], "freeToShare": true, "component": [{"type": {"text": "qualifier"}, "classifier": [{"text": "is not a major topic"}]}, {"type": {"text": "qualifier"}, "classifier": [{"coding": [{"system": "https://www.nlm.nih.gov/mesh", "code": "Q000008", "display": "administration & dosage"}]}], "component": [{"type": {"text": "is Major topic"}, "classifier": [{"coding": [{"system": "http://ncicb.nci.nih.gov/xml/owl/EVS/Thesaurus.owl", "code": "C49487", "display": "No"}]}]}]}, {"type": {"text": "qualifier"}, "classifier": [{"coding": [{"system": "https://www.nlm.nih.gov/mesh", "code": "Q000627", "display": "therapeutic use"}]}], "component": [{"type": {"text": "is Major topic"}, "classifier": [{"coding": [{"system": "http://ncicb.nci.nih.gov/xml/owl/EVS/Thesaurus.owl", "code": "C49488", "display": "Yes"}]}]}]}]}, {"type": {"coding": [{"system": "http://hl7.org/fhir/cited-artifact-classification-type", "code": "mesh-heading", "display": "MeSH heading"}], "text": "components (if present) include qualifier codings"}, "classifier": [{"coding": [{"system": "https://www.nlm.nih.gov/mesh", "code": "D000813", "display": "Anilides", "userSelected": false}]}], "freeToShare": true, "component": [{"type": {"text": "qualifier"}, "classifier": [{"text": "is not a major topic"}]}, {"type": {"text": "qualifier"}, "classifier": [{"coding": [{"system": "https://www.nlm.nih.gov/mesh", "code": "Q000008", "display": "administration & dosage"}]}], "component": [{"type": {"text": "is Major topic"}, "classifier": [{"coding": [{"system": "http://ncicb.nci.nih.gov/xml/owl/EVS/Thesaurus.owl", "code": "C49487", "display": "No"}]}]}]}, {"type": {"text": "qualifier"}, "classifier": [{"coding": [{"system": "https://www.nlm.nih.gov/mesh", "code": "Q000627", "display": "therapeutic use"}]}], "component": [{"type": {"text": "is Major topic"}, "classifier": [{"coding": [{"system": "http://ncicb.nci.nih.gov/xml/owl/EVS/Thesaurus.owl", "code": "C49487", "display": "No"}]}]}]}]}, {"type": {"coding": [{"system": "http://hl7.org/fhir/cited-artifact-classification-type", "code": "mesh-heading", "display": "MeSH heading"}], "text": "components (if present) include qualifier codings"}, "classifier": [{"coding": [{"system": "https://www.nlm.nih.gov/mesh", "code": "D018931", "display": "Antineoplastic Agents, Hormonal", "userSelected": false}]}], "freeToShare": true, "component": [{"type": {"text": "qualifier"}, "classifier": [{"text": "is not a major topic"}]}, {"type": {"text": "qualifier"}, "classifier": [{"coding": [{"system": "https://www.nlm.nih.gov/mesh", "code": "Q000008", "display": "administration & dosage"}]}], "component": [{"type": {"text": "is Major topic"}, "classifier": [{"coding": [{"system": "http://ncicb.nci.nih.gov/xml/owl/EVS/Thesaurus.owl", "code": "C49487", "display": "No"}]}]}]}, {"type": {"text": "qualifier"}, "classifier": [{"coding": [{"system": "https://www.nlm.nih.gov/mesh", "code": "Q000627", "display": "therapeutic use"}]}], "component": [{"type": {"text": "is Major topic"}, "classifier": [{"coding": [{"system": "http://ncicb.nci.nih.gov/xml/owl/EVS/Thesaurus.owl", "code": "C49488", "display": "Yes"}]}]}]}]}, {"type": {"coding": [{"system": "http://hl7.org/fhir/cited-artifact-classification-type", "code": "mesh-heading", "display": "MeSH heading"}], "text": "components (if present) include qualifier codings"}, "classifier": [{"coding": [{"system": "https://www.nlm.nih.gov/mesh", "code": "D000971", "display": "Antineoplastic Combined Chemotherapy Protocols", "userSelected": false}]}], "freeToShare": true, "component": [{"type": {"text": "qualifier"}, "classifier": [{"text": "is not a major topic"}]}, {"type": {"text": "qualifier"}, "classifier": [{"coding": [{"system": "https://www.nlm.nih.gov/mesh", "code": "Q000008", "display": "administration & dosage"}]}], "component": [{"type": {"text": "is Major topic"}, "classifier": [{"coding": [{"system": "http://ncicb.nci.nih.gov/xml/owl/EVS/Thesaurus.owl", "code": "C49487", "display": "No"}]}]}]}, {"type": {"text": "qualifier"}, "classifier": [{"coding": [{"system": "https://www.nlm.nih.gov/mesh", "code": "Q000627", "display": "therapeutic use"}]}], "component": [{"type": {"text": "is Major topic"}, "classifier": [{"coding": [{"system": "http://ncicb.nci.nih.gov/xml/owl/EVS/Thesaurus.owl", "code": "C49488", "display": "Yes"}]}]}]}]}, {"type": {"coding": [{"system": "http://hl7.org/fhir/cited-artifact-classification-type", "code": "mesh-heading", "display": "MeSH heading"}], "text": "components (if present) include qualifier codings"}, "classifier": [{"coding": [{"system": "https://www.nlm.nih.gov/mesh", "code": "D018572", "display": "Disease-Free Survival", "userSelected": false}]}], "freeToShare": true, "component": [{"type": {"text": "qualifier"}, "classifier": [{"text": "is not a major topic"}]}]}, {"type": {"coding": [{"system": "http://hl7.org/fhir/cited-artifact-classification-type", "code": "mesh-heading", "display": "MeSH heading"}], "text": "components (if present) include qualifier codings"}, "classifier": [{"coding": [{"system": "https://www.nlm.nih.gov/mesh", "code": "D006801", "display": "Humans", "userSelected": false}]}], "freeToShare": true, "component": [{"type": {"text": "qualifier"}, "classifier": [{"text": "is not a major topic"}]}]}, {"type": {"coding": [{"system": "http://hl7.org/fhir/cited-artifact-classification-type", "code": "mesh-heading", "display": "MeSH heading"}], "text": "components (if present) include qualifier codings"}, "classifier": [{"coding": [{"system": "https://www.nlm.nih.gov/mesh", "code": "D007610", "display": "Kallikreins", "userSelected": false}]}], "freeToShare": true, "component": [{"type": {"text": "qualifier"}, "classifier": [{"text": "is not a major topic"}]}, {"type": {"text": "qualifier"}, "classifier": [{"coding": [{"system": "https://www.nlm.nih.gov/mesh", "code": "Q000097", "display": "blood"}]}], "component": [{"type": {"text": "is Major topic"}, "classifier": [{"coding": [{"system": "http://ncicb.nci.nih.gov/xml/owl/EVS/Thesaurus.owl", "code": "C49487", "display": "No"}]}]}]}]}, {"type": {"coding": [{"system": "http://hl7.org/fhir/cited-artifact-classification-type", "code": "mesh-heading", "display": "MeSH heading"}], "text": "components (if present) include qualifier codings"}, "classifier": [{"coding": [{"system": "https://www.nlm.nih.gov/mesh", "code": "D016729", "display": "Leuprolide", "userSelected": false}]}], "freeToShare": true, "component": [{"type": {"text": "qualifier"}, "classifier": [{"text": "is not a major topic"}]}, {"type": {"text": "qualifier"}, "classifier": [{"coding": [{"system": "https://www.nlm.nih.gov/mesh", "code": "Q000008", "display": "administration & dosage"}]}], "component": [{"type": {"text": "is Major topic"}, "classifier": [{"coding": [{"system": "http://ncicb.nci.nih.gov/xml/owl/EVS/Thesaurus.owl", "code": "C49487", "display": "No"}]}]}]}, {"type": {"text": "qualifier"}, "classifier": [{"coding": [{"system": "https://www.nlm.nih.gov/mesh", "code": "Q000627", "display": "therapeutic use"}]}], "component": [{"type": {"text": "is Major topic"}, "classifier": [{"coding": [{"system": "http://ncicb.nci.nih.gov/xml/owl/EVS/Thesaurus.owl", "code": "C49487", "display": "No"}]}]}]}]}, {"type": {"coding": [{"system": "http://hl7.org/fhir/cited-artifact-classification-type", "code": "mesh-heading", "display": "MeSH heading"}], "text": "components (if present) include qualifier codings"}, "classifier": [{"coding": [{"system": "https://www.nlm.nih.gov/mesh", "code": "D008297", "display": "Male", "userSelected": false}]}], "freeToShare": true, "component": [{"type": {"text": "qualifier"}, "classifier": [{"text": "is not a major topic"}]}]}, {"type": {"coding": [{"system": "http://hl7.org/fhir/cited-artifact-classification-type", "code": "mesh-heading", "display": "MeSH heading"}], "text": "components (if present) include qualifier codings"}, "classifier": [{"coding": [{"system": "https://www.nlm.nih.gov/mesh", "code": "D008875", "display": "Middle Aged", "userSelected": false}]}], "freeToShare": true, "component": [{"type": {"text": "qualifier"}, "classifier": [{"text": "is not a major topic"}]}]}, {"type": {"coding": [{"system": "http://hl7.org/fhir/cited-artifact-classification-type", "code": "mesh-heading", "display": "MeSH heading"}], "text": "components (if present) include qualifier codings"}, "classifier": [{"coding": [{"system": "https://www.nlm.nih.gov/mesh", "code": "D060787", "display": "Neoplasm Grading", "userSelected": false}]}], "freeToShare": true, "component": [{"type": {"text": "qualifier"}, "classifier": [{"text": "is not a major topic"}]}]}, {"type": {"coding": [{"system": "http://hl7.org/fhir/cited-artifact-classification-type", "code": "mesh-heading", "display": "MeSH heading"}], "text": "components (if present) include qualifier codings"}, "classifier": [{"coding": [{"system": "https://www.nlm.nih.gov/mesh", "code": "D009570", "display": "Nitriles", "userSelected": false}]}], "freeToShare": true, "component": [{"type": {"text": "qualifier"}, "classifier": [{"text": "is not a major topic"}]}, {"type": {"text": "qualifier"}, "classifier": [{"coding": [{"system": "https://www.nlm.nih.gov/mesh", "code": "Q000008", "display": "administration & dosage"}]}], "component": [{"type": {"text": "is Major topic"}, "classifier": [{"coding": [{"system": "http://ncicb.nci.nih.gov/xml/owl/EVS/Thesaurus.owl", "code": "C49487", "display": "No"}]}]}]}, {"type": {"text": "qualifier"}, "classifier": [{"coding": [{"system": "https://www.nlm.nih.gov/mesh", "code": "Q000627", "display": "therapeutic use"}]}], "component": [{"type": {"text": "is Major topic"}, "classifier": [{"coding": [{"system": "http://ncicb.nci.nih.gov/xml/owl/EVS/Thesaurus.owl", "code": "C49487", "display": "No"}]}]}]}]}, {"type": {"coding": [{"system": "http://hl7.org/fhir/cited-artifact-classification-type", "code": "mesh-heading", "display": "MeSH heading"}], "text": "components (if present) include qualifier codings"}, "classifier": [{"coding": [{"system": "https://www.nlm.nih.gov/mesh", "code": "D017430", "display": "Prostate-Specific Antigen", "userSelected": false}]}], "freeToShare": true, "component": [{"type": {"text": "qualifier"}, "classifier": [{"text": "is not a major topic"}]}, {"type": {"text": "qualifier"}, "classifier": [{"coding": [{"system": "https://www.nlm.nih.gov/mesh", "code": "Q000097", "display": "blood"}]}], "component": [{"type": {"text": "is Major topic"}, "classifier": [{"coding": [{"system": "http://ncicb.nci.nih.gov/xml/owl/EVS/Thesaurus.owl", "code": "C49487", "display": "No"}]}]}]}]}, {"type": {"coding": [{"system": "http://hl7.org/fhir/cited-artifact-classification-type", "code": "mesh-heading", "display": "MeSH heading"}], "text": "components (if present) include qualifier codings"}, "classifier": [{"coding": [{"system": "https://www.nlm.nih.gov/mesh", "code": "D011468", "display": "Prostatectomy", "userSelected": false}]}], "freeToShare": true, "component": [{"type": {"text": "qualifier"}, "classifier": [{"text": "is not a major topic"}]}]}, {"type": {"coding": [{"system": "http://hl7.org/fhir/cited-artifact-classification-type", "code": "mesh-heading", "display": "MeSH heading"}], "text": "components (if present) include qualifier codings"}, "classifier": [{"coding": [{"system": "https://www.nlm.nih.gov/mesh", "code": "D011471", "display": "Prostatic Neoplasms", "userSelected": false}]}], "freeToShare": true, "component": [{"type": {"text": "qualifier"}, "classifier": [{"text": "is not a major topic"}]}, {"type": {"text": "qualifier"}, "classifier": [{"coding": [{"system": "https://www.nlm.nih.gov/mesh", "code": "Q000188", "display": "drug therapy"}]}], "component": [{"type": {"text": "is Major topic"}, "classifier": [{"coding": [{"system": "http://ncicb.nci.nih.gov/xml/owl/EVS/Thesaurus.owl", "code": "C49488", "display": "Yes"}]}]}]}, {"type": {"text": "qualifier"}, "classifier": [{"coding": [{"system": "https://www.nlm.nih.gov/mesh", "code": "Q000378", "display": "metabolism"}]}], "component": [{"type": {"text": "is Major topic"}, "classifier": [{"coding": [{"system": "http://ncicb.nci.nih.gov/xml/owl/EVS/Thesaurus.owl", "code": "C49487", "display": "No"}]}]}]}, {"type": {"text": "qualifier"}, "classifier": [{"coding": [{"system": "https://www.nlm.nih.gov/mesh", "code": "Q000473", "display": "pathology"}]}], "component": [{"type": {"text": "is Major topic"}, "classifier": [{"coding": [{"system": "http://ncicb.nci.nih.gov/xml/owl/EVS/Thesaurus.owl", "code": "C49487", "display": "No"}]}]}]}]}, {"type": {"coding": [{"system": "http://hl7.org/fhir/cited-artifact-classification-type", "code": "mesh-heading", "display": "MeSH heading"}], "text": "components (if present) include qualifier codings"}, "classifier": [{"coding": [{"system": "https://www.nlm.nih.gov/mesh", "code": "D011878", "display": "Radiotherapy", "userSelected": false}]}], "freeToShare": true, "component": [{"type": {"text": "qualifier"}, "classifier": [{"text": "is not a major topic"}]}]}, {"type": {"coding": [{"system": "http://hl7.org/fhir/cited-artifact-classification-type", "code": "mesh-heading", "display": "MeSH heading"}], "text": "components (if present) include qualifier codings"}, "classifier": [{"coding": [{"system": "https://www.nlm.nih.gov/mesh", "code": "D014105", "display": "Tosyl Compounds", "userSelected": false}]}], "freeToShare": true, "component": [{"type": {"text": "qualifier"}, "classifier": [{"text": "is not a major topic"}]}, {"type": {"text": "qualifier"}, "classifier": [{"coding": [{"system": "https://www.nlm.nih.gov/mesh", "code": "Q000008", "display": "administration & dosage"}]}], "component": [{"type": {"text": "is Major topic"}, "classifier": [{"coding": [{"system": "http://ncicb.nci.nih.gov/xml/owl/EVS/Thesaurus.owl", "code": "C49487", "display": "No"}]}]}]}, {"type": {"text": "qualifier"}, "classifier": [{"coding": [{"system": "https://www.nlm.nih.gov/mesh", "code": "Q000627", "display": "therapeutic use"}]}], "component": [{"type": {"text": "is Major topic"}, "classifier": [{"coding": [{"system": "http://ncicb.nci.nih.gov/xml/owl/EVS/Thesaurus.owl", "code": "C49487", "display": "No"}]}]}]}]}, {"type": {"coding": [{"system": "http://hl7.org/fhir/cited-artifact-classification-type", "code": "mesh-heading", "display": "MeSH heading"}], "text": "components (if present) include qualifier codings"}, "classifier": [{"coding": [{"system": "https://www.nlm.nih.gov/mesh", "code": "D017211", "display": "Treatment Failure", "userSelected": false}]}], "freeToShare": true, "component": [{"type": {"text": "qualifier"}, "classifier": [{"text": "is not a major topic"}]}]}]}], "useContext": [{"code": {"system": "http://hl7.org/fhir/citation-classification-type", "code": "fevir-platform-use", "display": "FEvIR Platform Use"}, "valueCodeableConcept": {"coding": [{"system": "http://hl7.org/fhir/citation-artifact-classifier", "code": "medline-base", "display": "Medline Base", "userSelected": false}]}}], "classification": [{"type": {"coding": [{"system": "http://hl7.org/fhir/citation-classification-type", "code": "citation-source", "display": "Citation Source"}]}, "classifier": [{"text": "MEDLINE"}]}, {"type": {"coding": [{"system": "http://hl7.org/fhir/citation-classification-type", "code": "medline-owner", "display": "MEDLINE Citation Owner"}]}, "classifier": [{"coding": [{"system": "https://www.nlm.nih.gov/bsd/licensee/elements_descriptions.html#owner_value", "code": "NLM", "display": "National Library of Medicine, Index Section", "userSelected": false}]}]}], "statusDate": [{"activity": {"coding": [{"system": "http://hl7.org/fhir/citation-status-type", "code": "pubmed-pubstatus-received", "display": "PubMed Pubstatus of Received"}]}, "period": {"end": "2013-02-14"}}, {"activity": {"coding": [{"system": "http://hl7.org/fhir/citation-status-type", "code": "pubmed-pubstatus-accepted", "display": "PubMed Pubstatus of Accepted"}]}, "period": {"end": "2013-04-08"}}, {"activity": {"coding": [{"system": "http://hl7.org/fhir/citation-status-type", "code": "pubmed-pubstatus-entrez", "display": "PubMed Pubstatus of Entrez"}]}, "period": {"end": "2013-04-23T06:00:00.000Z"}}, {"activity": {"coding": [{"system": "http://hl7.org/fhir/citation-status-type", "code": "pubmed-pubstatus-pubmed", "display": "PubMed Pubstatus of Pubmed"}]}, "period": {"end": "2013-04-23T06:00:00.000Z"}}, {"activity": {"coding": [{"system": "http://hl7.org/fhir/citation-status-type", "code": "pubmed-pubstatus-medline", "display": "PubMed Pubstatus of Medline"}]}, "period": {"end": "2013-08-02T06:00:00.000Z"}}], "citedArtifact": {"identifier": [{"system": "https://pubmed.ncbi.nlm.nih.gov", "value": "23604530"}, {"system": "https://doi.org", "value": "10.1007/s00280-013-2163-4"}], "title": [{"text": "A phase II trial of androgen deprivation therapy (ADT) plus chemotherapy as initial treatment for local failures or advanced prostate cancer.", "language": "en", "type": [{"coding": [{"system": "http://hl7.org/fhir/title-type", "code": "primary", "display": "Primary title"}]}]}], "abstract": [{"type": {"coding": [{"system": "http://hl7.org/fhir/cited-artifact-abstract-type", "code": "primary-human-use", "display": "Primary human use"}]}, "text": "**PURPOSE:** Long-term hormonal ablation in prostate cancer is associated with decreased overall health and quality of life. Few reports emphasized the role of chemotherapy in the management of early stage prostate cancer. This study analyzed the safety and efficacy of androgen deprivation therapy (ADT) plus chemotherapy as initial treatment for patients identified as local failures or not eligible for prostatectomy or radiation therapy due to advanced disease presentation.\n**METHODS:** Enrolled patients received ADT in the form of leuprolide every 12 weeks for 24 months with bicalutamide initiating after the completion of chemotherapy. Chemotherapy consisted of ketoconazole and doxorubicin for weeks 1, 3, and 5 and estramustine and docetaxel and for weeks 2, 4 and 6. During weeks 7 and 8, no treatment was received.\n**RESULTS:** Forty-six patients were enrolled, and forty-five patients were evaluable. Median progression-free survival (PFS) was 23.4 months. Median overall survival (OS) was 53.7 months. Out of 45 patients with measurable disease, 22 patients had an objective response: 9 patients achieved a complete response; 2 patients achieved a partial response; 10 patients achieved stable disease. Frequent grade 3 adverse events included elevated ALT (17 %), hypokalemia (13 %), and hypophosphatemia (13 %). Grade 4 adverse events were rare and included low bicarbonate (2 %), hypokalemia (2 %), leukocytopenia (2 %), and neutropenia (2 %).\n**CONCLUSIONS:** The treatment demonstrated clinical benefit in all patient subsets with minimal reversible treatment-related adverse events. Subgroup analysis suggests that having prior local therapy resulted in greater PFS and OS."}], "publicationForm": [{"publishedIn": {"type": {"coding": [{"system": "http://hl7.org/fhir/published-in-type", "code": "D020492", "display": "Periodical"}]}, "identifier": [{"type": {"coding": [{"system": "https://www.nlm.nih.gov/bsd/licensee/elements_descriptions.html#issn", "code": "Electronic", "display": "Electronic"}], "text": "Electronic ISSN Type"}, "value": "1432-0843", "system": "https://portal.issn.org"}, {"type": {"text": "ISOAbbreviation", "coding": [{"system": "http://terminology.hl7.org/CodeSystem/v2-0203", "code": "XX", "display": "Organization identifier"}]}, "system": "https://www.issn.org/services/online-services/access-to-the-ltwa/", "value": "Cancer Chemother Pharmacol"}, {"type": {"text": "ISSN Linking", "coding": [{"system": "http://terminology.hl7.org/CodeSystem/v2-0203", "code": "XX", "display": "Organization identifier"}]}, "system": "https://www.issn.org/understanding-the-issn/assignment-rules/the-issn-l-for-publications-on-multiple-media/", "value": "0344-5704"}, {"type": {"text": "Medline Title Abbreviation", "coding": [{"system": "http://terminology.hl7.org/CodeSystem/v2-0203", "code": "XX", "display": "Organization identifier"}]}, "system": "https://www.nlm.nih.gov/tsd/cataloging/contructitleabbre.html", "value": "Cancer Chemother Pharmacol"}, {"type": {"text": "NLM Unique ID", "coding": [{"system": "http://terminology.hl7.org/CodeSystem/v2-0203", "code": "XX", "display": "Organization identifier"}]}, "system": "https://locatorplus.gov/cgi-bin/Pwebrecon.cgi?DB=local", "value": "7806519"}], "title": "Cancer chemotherapy and pharmacology", "publisherLocation": "Germany"}, "citedMedium": {"coding": [{"system": "http://hl7.org/fhir/cited-medium", "code": "internet", "display": "Internet"}]}, "volume": "71", "issue": "6", "articleDate": "2013-06", "pageString": "1629-34", "publicationDateText": "2013-Jun"}, {"citedMedium": {"coding": [{"system": "http://hl7.org/fhir/cited-medium", "code": "internet-without-issue", "display": "Internet without issue"}]}, "articleDate": "2013-04-21"}], "webLocation": [{"classifier": [{"coding": [{"system": "http://hl7.org/fhir/artifact-url-classifier", "code": "abstract", "display": "Abstract"}]}], "url": "https://pubmed.ncbi.nlm.nih.gov/23604530/"}, {"url": "https://doi.org/10.1007/s00280-013-2163-4", "classifier": [{"coding": [{"system": "http://hl7.org/fhir/artifact-url-classifier", "code": "doi-based", "display": "DOI Based"}]}]}], "classification": [{"type": {"coding": [{"system": "http://hl7.org/fhir/cited-artifact-classification-type", "code": "publishing-model", "display": "Publishing Model", "userSelected": false}]}, "classifier": [{"coding": [{"system": "http://hl7.org/fhir/citation-artifact-classifier", "code": "Print-Electronic", "display": "Print Electronic", "userSelected": false}]}]}, {"type": {"coding": [{"system": "http://hl7.org/fhir/cited-artifact-classification-type", "code": "chemical", "display": "Chemical", "userSelected": false}]}, "classifier": [{"coding": [{"system": "https://www.nlm.nih.gov/mesh", "code": "D000726", "display": "Androgen Antagonists", "userSelected": false}]}, {"coding": [{"system": "https://www.nlm.nih.gov/mesh", "code": "D000813", "display": "Anilides", "userSelected": false}]}, {"coding": [{"system": "https://www.nlm.nih.gov/mesh", "code": "D018931", "display": "Antineoplastic Agents, Hormonal", "userSelected": false}]}, {"coding": [{"system": "https://www.nlm.nih.gov/mesh", "code": "D009570", "display": "Nitriles", "userSelected": false}]}, {"coding": [{"system": "https://www.nlm.nih.gov/mesh", "code": "D014105", "display": "Tosyl Compounds", "userSelected": false}]}, {"coding": [{"system": "https://www.cas.org/support/documentation/chemical-substances", "code": "A0Z3NAU9DP", "userSelected": false}, {"system": "https://www.nlm.nih.gov/mesh", "code": "C053541", "display": "bicalutamide", "userSelected": false}]}, {"coding": [{"system": "https://www.cas.org/support/documentation/chemical-substances", "code": "EC 3.4.21.-", "userSelected": false}, {"system": "https://www.nlm.nih.gov/mesh", "code": "C549870", "display": "KLK3 protein, human", "userSelected": false}]}, {"coding": [{"system": "https://www.cas.org/support/documentation/chemical-substances", "code": "EC 3.4.21.-", "userSelected": false}, {"system": "https://www.nlm.nih.gov/mesh", "code": "D007610", "display": "Kallikreins", "userSelected": false}]}, {"coding": [{"system": "https://www.cas.org/support/documentation/chemical-substances", "code": "EC 3.4.21.77", "userSelected": false}, {"system": "https://www.nlm.nih.gov/mesh", "code": "D017430", "display": "Prostate-Specific Antigen", "userSelected": false}]}, {"coding": [{"system": "https://www.cas.org/support/documentation/chemical-substances", "code": "EFY6W0M8TG", "userSelected": false}, {"system": "https://www.nlm.nih.gov/mesh", "code": "D016729", "display": "Leuprolide", "userSelected": false}]}]}, {"type": {"coding": [{"system": "http://hl7.org/fhir/cited-artifact-classification-type", "code": "mesh-heading", "display": "MeSH heading"}]}, "artifactAssessment": [{"reference": "#meshHeading0", "type": "ArtifactAssessment"}]}, {"type": {"coding": [{"system": "http://hl7.org/fhir/cited-artifact-classification-type", "code": "publication-type", "display": "Publication type"}]}, "classifier": [{"coding": [{"system": "https://www.nlm.nih.gov/mesh", "code": "D017427", "display": "Clinical Trial, Phase II", "userSelected": false}]}, {"coding": [{"system": "https://www.nlm.nih.gov/mesh", "code": "D016428", "display": "Journal Article", "userSelected": false}]}]}, {"type": {"coding": [{"system": "http://hl7.org/fhir/cited-artifact-classification-type", "code": "knowledge-artifact-type", "display": "Knowledge Artifact Type", "userSelected": false}]}, "classifier": [{"coding": [{"system": "http://hl7.org/fhir/citation-artifact-classifier", "code": "D016428", "display": "Journal Article", "userSelected": false}]}], "artifactAssessment": [{"display": "Classifier added by Computable Publishing LLC"}]}, {"type": {"coding": [{"system": "http://hl7.org/fhir/cited-artifact-classification-type", "code": "citation-subset", "display": "Citation subset", "userSelected": false}]}, "classifier": [{"coding": [{"system": "https://www.nlm.nih.gov/bsd/licensee/elements_descriptions.html#citationsubset", "code": "IM", "display": "IM", "userSelected": false}]}]}], "contributorship": {"entry": [{"contributor": {"reference": "#contributor0", "type": "Practitioner", "display": "Amato R"}, "forenameInitials": "R", "affiliation": [{"display": "Division of Oncology, Department of Internal Medicine, University of Texas Health Science Center at Houston (Medical School)/Memorial Hermann Cancer Center, 6410 Fannin St., Suite 830, Houston, TX 77030, USA. robert.amato@uth.tmc.edu"}]}, {"contributor": {"reference": "#contributor1", "type": "Practitioner", "display": "Stepankiw M"}, "forenameInitials": "M"}, {"contributor": {"reference": "#contributor2", "type": "Practitioner", "display": "Gonzales P"}, "forenameInitials": "P"}], "complete": true}}, "approvalDate": "2013-08-01", "lastReviewDate": "2021-11-22", "currentState": [{"coding": [{"system": "http://hl7.org/fhir/citation-status-type", "code": "medline-medline", "display": "Medline Citation Status of Medline"}]}, {"coding": [{"system": "http://hl7.org/fhir/citation-status-type", "code": "pubmed-publication-status-ppublish", "display": "PubMed PublicationStatus of ppublish"}]}], "title": "23604530 A phase II trial of androgen deprivation therapy (ADT) plus chemotherapy as initial treatment for local failures or advanced prostate cancer.", "identifier": [{"type": {"text": "FEvIR Object Identifier", "coding": [{"system": "http://terminology.hl7.org/CodeSystem/v2-0203", "code": "ACSN", "display": "Accession ID"}]}, "system": "urn:ietf:rfc:3986", "value": "https://fevir.net/FOI/179629", "assigner": {"display": "Computable Publishing LLC"}}, {"system": "https://pubmed.ncbi.nlm.nih.gov", "value": "23604530"}], "status": "active", "url": "https://fevir.net/resources/Citation/179629", "id": "179629", "publisher": "Computable Publishing LLC", "copyright": "https://creativecommons.org/licenses/by-nc-sa/4.0/", "contact": [{"telecom": [{"system": "email", "value": "support@computablepublishing.com"}]}], "author": [{"name": "Computable Publishing\u00ae: MEDLINE-to-FEvIR Converter"}], "description": "This Citation Resource is referenced in an example for the EBMonFHIR Implementation Guide."}