{"id": "179594", "url": "https://fevir.net/resources/Citation/179594", "meta": {"profile": ["http://hl7.org/fhir/uv/ebm/StructureDefinition/journal-article-citation"], "versionId": "20", "lastUpdated": "2025-10-13T12:34:35.118Z"}, "title": "34871555 What Can Wonder Woman Teach Radiologists?", "author": [{"name": "Computable Publishing\u00ae: MEDLINE-to-FEvIR Converter"}], "status": "active", "contact": [{"telecom": [{"value": "support@computablepublishing.com", "system": "email"}]}], "contained": [{"id": "contributor0", "name": [{"given": ["Lynda"], "family": "Carter"}], "resourceType": "Practitioner"}, {"id": "contributor1", "name": [{"given": ["Elliot K"], "family": "Fishman"}], "resourceType": "Practitioner"}, {"id": "contributor2", "name": [{"given": ["Steven P"], "family": "Rowe"}], "resourceType": "Practitioner"}, {"id": "contributor3", "name": [{"given": ["Linda C"], "family": "Chu"}], "resourceType": "Practitioner"}, {"id": "meshHeading0", "content": [{"type": {"text": "components (if present) include qualifier codings", "coding": [{"code": "mesh-heading", "system": "http://terminology.hl7.org/CodeSystem/cited-artifact-classification-type", "display": "MeSH heading"}]}, "component": [{"type": {"text": "qualifier"}, "classifier": [{"text": "is not a major topic"}]}], "classifier": [{"coding": [{"code": "D005260", "system": "https://www.nlm.nih.gov/mesh", "display": "Female", "userSelected": false}]}], "freeToShare": true}, {"type": {"text": "components (if present) include qualifier codings", "coding": [{"code": "mesh-heading", "system": "http://terminology.hl7.org/CodeSystem/cited-artifact-classification-type", "display": "MeSH heading"}]}, "component": [{"type": {"text": "qualifier"}, "classifier": [{"text": "is not a major topic"}]}], "classifier": [{"coding": [{"code": "D006801", "system": "https://www.nlm.nih.gov/mesh", "display": "Humans", "userSelected": false}]}], "freeToShare": true}, {"type": {"text": "components (if present) include qualifier codings", "coding": [{"code": "mesh-heading", "system": "http://terminology.hl7.org/CodeSystem/cited-artifact-classification-type", "display": "MeSH heading"}]}, "component": [{"type": {"text": "qualifier"}, "classifier": [{"text": "is Major topic"}]}], "classifier": [{"coding": [{"code": "D000072177", "system": "https://www.nlm.nih.gov/mesh", "display": "Radiologists", "userSelected": false}]}], "freeToShare": true}], "resourceType": "ArtifactAssessment", "artifactReference": {"type": "Citation", "reference": "#"}}], "copyright": "https://creativecommons.org/licenses/by-nc-sa/4.0/", "extension": [{"url": "http://hl7.org/fhir/uv/ebm/StructureDefinition/artifact-publication-status", "valueCodeableConcept": {"coding": [{"code": "active", "system": "http://terminology.hl7.org/CodeSystem/cited-artifact-status-type", "display": "Active"}]}}], "publisher": "Computable Publishing LLC", "identifier": [{"type": {"text": "FEvIR Object Identifier", "coding": [{"system": "http://terminology.hl7.org/CodeSystem/v2-0203", "code": "ACSN", "display": "Accession ID"}]}, "value": "179594", "system": "https://fevir.net/FOI", "assigner": {"display": "Computable Publishing LLC"}}, {"value": "34871555", "system": "https://pubmed.ncbi.nlm.nih.gov"}], "statusDate": [{"period": {"end": "2021-10-11"}, "activity": {"coding": [{"code": "pubmed-pubstatus-received", "system": "http://hl7.org/fhir/citation-status-type", "display": "PubMed Pubstatus of Received"}]}}, {"period": {"end": "2021-10-29"}, "activity": {"coding": [{"code": "pubmed-pubstatus-accepted", "system": "http://hl7.org/fhir/citation-status-type", "display": "PubMed Pubstatus of Accepted"}]}}, {"period": {"end": "2021-12-07T06:00:00.000Z"}, "activity": {"coding": [{"code": "pubmed-pubstatus-pubmed", "system": "http://hl7.org/fhir/citation-status-type", "display": "PubMed Pubstatus of Pubmed"}]}}, {"period": {"end": "2022-03-04T06:00:00.000Z"}, "activity": {"coding": [{"code": "pubmed-pubstatus-medline", "system": "http://hl7.org/fhir/citation-status-type", "display": "PubMed Pubstatus of Medline"}]}}, {"period": {"end": "2021-12-06T20:11:00.000Z"}, "activity": {"coding": [{"code": "pubmed-pubstatus-entrez", "system": "http://hl7.org/fhir/citation-status-type", "display": "PubMed Pubstatus of Entrez"}]}}], "useContext": [{"code": {"code": "fevir-platform-use", "system": "http://terminology.hl7.org/CodeSystem/citation-classification-type", "display": "FEvIR Platform Use"}, "valueCodeableConcept": {"coding": [{"code": "medline-base", "system": "http://terminology.hl7.org/CodeSystem/citation-artifact-classifier", "display": "Medline Base", "userSelected": false}]}}], "approvalDate": "2022-03-03", "currentState": [{"coding": [{"code": "medline-medline", "system": "http://hl7.org/fhir/citation-status-type", "display": "Medline Citation Status of Medline"}]}, {"coding": [{"code": "pubmed-publication-status-ppublish", "system": "http://hl7.org/fhir/citation-status-type", "display": "PubMed PublicationStatus of ppublish"}]}], "resourceType": "Citation", "citedArtifact": {"title": [{"text": "What Can Wonder Woman Teach Radiologists?", "type": [{"coding": [{"code": "primary", "system": "http://terminology.hl7.org/CodeSystem/title-type", "display": "Primary title"}]}], "language": {"coding": [{"system": "urn:ietf:bcp:47", "code": "en", "display": "English"}]}}], "identifier": [{"value": "34871555", "system": "https://pubmed.ncbi.nlm.nih.gov"}, {"value": "10.1016/j.jacr.2021.10.014", "system": "https://doi.org"}, {"type": {"text": "pii", "coding": [{"system": "http://terminology.hl7.org/CodeSystem/v2-0203", "code": "ACSN", "display": "Accession ID"}]}, "value": "S1546-1440(21)00932-7"}], "webLocation": [{"url": "https://pubmed.ncbi.nlm.nih.gov/34871555/", "classifier": [{"coding": [{"code": "abstract", "system": "http://terminology.hl7.org/CodeSystem/artifact-url-classifier", "display": "Abstract"}]}]}, {"url": "https://doi.org/10.1016/j.jacr.2021.10.014", "classifier": [{"coding": [{"code": "doi-based", "system": "http://terminology.hl7.org/CodeSystem/artifact-url-classifier", "display": "DOI Based"}]}]}], "classification": [{"type": {"coding": [{"code": "publishing-model", "system": "http://terminology.hl7.org/CodeSystem/cited-artifact-classification-type", "display": "Publishing Model", "userSelected": false}]}, "classifier": [{"coding": [{"code": "Print-Electronic", "system": "http://terminology.hl7.org/CodeSystem/citation-artifact-classifier", "display": "Print Electronic", "userSelected": false}]}]}, {"type": {"coding": [{"code": "mesh-heading", "system": "http://terminology.hl7.org/CodeSystem/cited-artifact-classification-type", "display": "MeSH heading"}]}, "artifactAssessment": [{"type": "ArtifactAssessment", "reference": "#meshHeading0"}]}, {"type": {"coding": [{"code": "publication-type", "system": "http://terminology.hl7.org/CodeSystem/cited-artifact-classification-type", "display": "Publication type"}]}, "classifier": [{"coding": [{"code": "D016428", "system": "https://www.nlm.nih.gov/mesh", "display": "Journal Article", "userSelected": false}]}]}, {"type": {"coding": [{"code": "knowledge-artifact-type", "system": "http://terminology.hl7.org/CodeSystem/cited-artifact-classification-type", "display": "Knowledge Artifact Type", "userSelected": false}]}, "classifier": [{"coding": [{"code": "D016428", "system": "http://terminology.hl7.org/CodeSystem/citation-artifact-classifier", "display": "Journal Article", "userSelected": false}]}], "artifactAssessment": [{"display": "Classifier added by Computable Publishing LLC"}]}, {"type": {"coding": [{"code": "citation-subset", "system": "http://terminology.hl7.org/CodeSystem/cited-artifact-classification-type", "display": "Citation subset", "userSelected": false}]}, "classifier": [{"coding": [{"code": "IM", "system": "https://www.nlm.nih.gov/bsd/licensee/elements_descriptions.html#citationsubset", "display": "IM", "userSelected": false}]}]}], "contributorship": {"entry": [{"affiliation": [{"display": "self-employed."}], "contributor": {"type": "Practitioner", "display": "Carter L", "reference": "#contributor0"}, "forenameInitials": "L"}, {"affiliation": [{"display": "Russell H. Morgan Department of Radiology and Radiological Science, Johns Hopkins University School of Medicine, Baltimore, Maryland; Director, Diagnostic Division, Department of Radiology, Johns Hopkins University School of Medicine, Baltimore, Maryland."}], "contributor": {"type": "Practitioner", "display": "Fishman EK", "reference": "#contributor1"}, "forenameInitials": "EK"}, {"affiliation": [{"display": "Russell H. Morgan Department of Radiology and Radiological Science, Johns Hopkins University School of Medicine, Baltimore, Maryland."}], "contributor": {"type": "Practitioner", "display": "Rowe SP", "reference": "#contributor2"}, "forenameInitials": "SP"}, {"affiliation": [{"display": "Russell H. Morgan Department of Radiology and Radiological Science, Johns Hopkins University School of Medicine, Baltimore, Maryland; Associate Director, Diagnostic Division, Department of Radiology, Johns Hopkins University School of Medicine, Baltimore, Maryland. Electronic address: lindachu@jhmi.edu."}], "contributor": {"type": "Practitioner", "display": "Chu LC", "reference": "#contributor3"}, "forenameInitials": "LC"}], "complete": true}, "publicationForm": [{"issue": "2 Pt A", "volume": "19", "pageString": "314-315", "articleDate": "2022-02", "citedMedium": {"coding": [{"code": "internet", "system": "http://terminology.hl7.org/CodeSystem/cited-medium", "display": "Internet"}]}, "publishedIn": {"type": {"coding": [{"code": "D020492", "system": "http://terminology.hl7.org/CodeSystem/published-in-type", "display": "Periodical"}]}, "title": "Journal of the American College of Radiology : JACR", "identifier": [{"type": {"text": "Electronic ISSN Type", "coding": [{"code": "Electronic", "system": "https://www.nlm.nih.gov/bsd/licensee/elements_descriptions.html#issn", "display": "Electronic"}]}, "value": "1558-349X", "system": "https://portal.issn.org"}, {"type": {"text": "ISOAbbreviation", "coding": [{"system": "http://terminology.hl7.org/CodeSystem/v2-0203", "code": "XX", "display": "Organization identifier"}]}, "value": "J Am Coll Radiol", "system": "https://www.issn.org/services/online-services/access-to-the-ltwa/"}, {"type": {"text": "ISSN Linking", "coding": [{"system": "http://terminology.hl7.org/CodeSystem/v2-0203", "code": "XX", "display": "Organization identifier"}]}, "value": "1546-1440", "system": "https://www.issn.org/understanding-the-issn/assignment-rules/the-issn-l-for-publications-on-multiple-media/"}, {"type": {"text": "Medline Title Abbreviation", "coding": [{"system": "http://terminology.hl7.org/CodeSystem/v2-0203", "code": "XX", "display": "Organization identifier"}]}, "value": "J Am Coll Radiol", "system": "https://www.nlm.nih.gov/tsd/cataloging/contructitleabbre.html"}, {"type": {"text": "NLM Unique ID", "coding": [{"system": "http://terminology.hl7.org/CodeSystem/v2-0203", "code": "XX", "display": "Organization identifier"}]}, "value": "101190326", "system": "https://locatorplus.gov/cgi-bin/Pwebrecon.cgi?DB=local"}], "publisherLocation": "United States"}}, {"articleDate": "2021-12-03", "citedMedium": {"coding": [{"code": "internet-without-issue", "system": "http://terminology.hl7.org/CodeSystem/cited-medium", "display": "Internet without issue"}]}}]}, "classification": [{"type": {"coding": [{"code": "citation-source", "system": "http://terminology.hl7.org/CodeSystem/citation-classification-type", "display": "Citation Source"}]}, "classifier": [{"text": "MEDLINE"}]}, {"type": {"coding": [{"code": "medline-owner", "system": "http://terminology.hl7.org/CodeSystem/citation-classification-type", "display": "MEDLINE Citation Owner"}]}, "classifier": [{"coding": [{"code": "NLM", "system": "https://www.nlm.nih.gov/bsd/licensee/elements_descriptions.html#owner_value", "display": "National Library of Medicine, Index Section", "userSelected": false}]}]}], "lastReviewDate": "2022-03-03", "description": "This Citation Resource is referenced in an example for the EBMonFHIR Implementation Guide."}