{"id": "179622", "url": "https://fevir.net/resources/Citation/179622", "meta": {"profile": ["http://hl7.org/fhir/uv/ebm/StructureDefinition/journal-article-citation"], "versionId": "23", "lastUpdated": "2025-10-13T12:34:35.118Z"}, "title": "26002607 Should docetaxel be standard of care for patients with metastatic hormone-sensitive prostate cancer? Pro and contra.", "author": [{"name": "Computable Publishing\u00ae: MEDLINE-to-FEvIR Converter"}], "status": "active", "contact": [{"telecom": [{"value": "support@computablepublishing.com", "system": "email"}]}], "contained": [{"id": "keywords0", "content": [{"classifier": [{"text": "ADT"}]}, {"classifier": [{"text": "de novo metastatic"}]}, {"classifier": [{"text": "docetaxel"}]}, {"classifier": [{"text": "hormone-naive"}]}, {"classifier": [{"text": "prostate"}]}], "resourceType": "ArtifactAssessment", "artifactReference": {"type": "Citation", "reference": "#"}}, {"id": "contributor0", "name": [{"given": ["K"], "family": "Fizazi"}], "resourceType": "Practitioner"}, {"id": "contributor1", "name": [{"given": ["C"], "family": "Jenkins"}], "resourceType": "Practitioner"}, {"id": "contributor2", "name": [{"given": ["I F"], "family": "Tannock"}], "resourceType": "Practitioner"}, {"id": "meshHeading0", "content": [{"type": {"text": "components (if present) include qualifier codings", "coding": [{"code": "mesh-heading", "system": "http://terminology.hl7.org/CodeSystem/cited-artifact-classification-type", "display": "MeSH heading"}]}, "component": [{"type": {"text": "qualifier"}, "classifier": [{"text": "is not a major topic"}]}, {"type": {"text": "qualifier"}, "component": [{"type": {"text": "is Major topic"}, "classifier": [{"coding": [{"code": "C49487", "system": "http://ncicb.nci.nih.gov/xml/owl/EVS/Thesaurus.owl", "display": "No"}]}]}], "classifier": [{"coding": [{"code": "Q000008", "system": "https://www.nlm.nih.gov/mesh", "display": "administration & dosage"}]}]}], "classifier": [{"coding": [{"code": "D000726", "system": "https://www.nlm.nih.gov/mesh", "display": "Androgen Antagonists", "userSelected": false}]}], "freeToShare": true}, {"type": {"text": "components (if present) include qualifier codings", "coding": [{"code": "mesh-heading", "system": "http://terminology.hl7.org/CodeSystem/cited-artifact-classification-type", "display": "MeSH heading"}]}, "component": [{"type": {"text": "qualifier"}, "classifier": [{"text": "is not a major topic"}]}, {"type": {"text": "qualifier"}, "component": [{"type": {"text": "is Major topic"}, "classifier": [{"coding": [{"code": "C49488", "system": "http://ncicb.nci.nih.gov/xml/owl/EVS/Thesaurus.owl", "display": "Yes"}]}]}], "classifier": [{"coding": [{"code": "Q000627", "system": "https://www.nlm.nih.gov/mesh", "display": "therapeutic use"}]}]}], "classifier": [{"coding": [{"code": "D000971", "system": "https://www.nlm.nih.gov/mesh", "display": "Antineoplastic Combined Chemotherapy Protocols", "userSelected": false}]}], "freeToShare": true}, {"type": {"text": "components (if present) include qualifier codings", "coding": [{"code": "mesh-heading", "system": "http://terminology.hl7.org/CodeSystem/cited-artifact-classification-type", "display": "MeSH heading"}]}, "component": [{"type": {"text": "qualifier"}, "classifier": [{"text": "is not a major topic"}]}, {"type": {"text": "qualifier"}, "component": [{"type": {"text": "is Major topic"}, "classifier": [{"coding": [{"code": "C49488", "system": "http://ncicb.nci.nih.gov/xml/owl/EVS/Thesaurus.owl", "display": "Yes"}]}]}], "classifier": [{"coding": [{"code": "Q000188", "system": "https://www.nlm.nih.gov/mesh", "display": "drug therapy"}]}]}, {"type": {"text": "qualifier"}, "component": [{"type": {"text": "is Major topic"}, "classifier": [{"coding": [{"code": "C49487", "system": "http://ncicb.nci.nih.gov/xml/owl/EVS/Thesaurus.owl", "display": "No"}]}]}], "classifier": [{"coding": [{"code": "Q000556", "system": "https://www.nlm.nih.gov/mesh", "display": "secondary"}]}]}], "classifier": [{"coding": [{"code": "D001859", "system": "https://www.nlm.nih.gov/mesh", "display": "Bone Neoplasms", "userSelected": false}]}], "freeToShare": true}, {"type": {"text": "components (if present) include qualifier codings", "coding": [{"code": "mesh-heading", "system": "http://terminology.hl7.org/CodeSystem/cited-artifact-classification-type", "display": "MeSH heading"}]}, "component": [{"type": {"text": "qualifier"}, "classifier": [{"text": "is not a major topic"}]}], "classifier": [{"coding": [{"code": "D018450", "system": "https://www.nlm.nih.gov/mesh", "display": "Disease Progression", "userSelected": false}]}], "freeToShare": true}, {"type": {"text": "components (if present) include qualifier codings", "coding": [{"code": "mesh-heading", "system": "http://terminology.hl7.org/CodeSystem/cited-artifact-classification-type", "display": "MeSH heading"}]}, "component": [{"type": {"text": "qualifier"}, "classifier": [{"text": "is not a major topic"}]}], "classifier": [{"coding": [{"code": "D018572", "system": "https://www.nlm.nih.gov/mesh", "display": "Disease-Free Survival", "userSelected": false}]}], "freeToShare": true}, {"type": {"text": "components (if present) include qualifier codings", "coding": [{"code": "mesh-heading", "system": "http://terminology.hl7.org/CodeSystem/cited-artifact-classification-type", "display": "MeSH heading"}]}, "component": [{"type": {"text": "qualifier"}, "classifier": [{"text": "is not a major topic"}]}], "classifier": [{"coding": [{"code": "D000077143", "system": "https://www.nlm.nih.gov/mesh", "display": "Docetaxel", "userSelected": false}]}], "freeToShare": true}, {"type": {"text": "components (if present) include qualifier codings", "coding": [{"code": "mesh-heading", "system": "http://terminology.hl7.org/CodeSystem/cited-artifact-classification-type", "display": "MeSH heading"}]}, "component": [{"type": {"text": "qualifier"}, "classifier": [{"text": "is not a major topic"}]}, {"type": {"text": "qualifier"}, "component": [{"type": {"text": "is Major topic"}, "classifier": [{"coding": [{"code": "C49488", "system": "http://ncicb.nci.nih.gov/xml/owl/EVS/Thesaurus.owl", "display": "Yes"}]}]}], "classifier": [{"coding": [{"code": "Q000819", "system": "https://www.nlm.nih.gov/mesh", "display": "agonists"}]}]}], "classifier": [{"coding": [{"code": "D007987", "system": "https://www.nlm.nih.gov/mesh", "display": "Gonadotropin-Releasing Hormone", "userSelected": false}]}], "freeToShare": true}, {"type": {"text": "components (if present) include qualifier codings", "coding": [{"code": "mesh-heading", "system": "http://terminology.hl7.org/CodeSystem/cited-artifact-classification-type", "display": "MeSH heading"}]}, "component": [{"type": {"text": "qualifier"}, "classifier": [{"text": "is not a major topic"}]}], "classifier": [{"coding": [{"code": "D006801", "system": "https://www.nlm.nih.gov/mesh", "display": "Humans", "userSelected": false}]}], "freeToShare": true}, {"type": {"text": "components (if present) include qualifier codings", "coding": [{"code": "mesh-heading", "system": "http://terminology.hl7.org/CodeSystem/cited-artifact-classification-type", "display": "MeSH heading"}]}, "component": [{"type": {"text": "qualifier"}, "classifier": [{"text": "is not a major topic"}]}], "classifier": [{"coding": [{"code": "D008297", "system": "https://www.nlm.nih.gov/mesh", "display": "Male", "userSelected": false}]}], "freeToShare": true}, {"type": {"text": "components (if present) include qualifier codings", "coding": [{"code": "mesh-heading", "system": "http://terminology.hl7.org/CodeSystem/cited-artifact-classification-type", "display": "MeSH heading"}]}, "component": [{"type": {"text": "qualifier"}, "classifier": [{"text": "is Major topic"}]}], "classifier": [{"coding": [{"code": "D009919", "system": "https://www.nlm.nih.gov/mesh", "display": "Orchiectomy", "userSelected": false}]}], "freeToShare": true}, {"type": {"text": "components (if present) include qualifier codings", "coding": [{"code": "mesh-heading", "system": "http://terminology.hl7.org/CodeSystem/cited-artifact-classification-type", "display": "MeSH heading"}]}, "component": [{"type": {"text": "qualifier"}, "classifier": [{"text": "is not a major topic"}]}], "classifier": [{"coding": [{"code": "D016016", "system": "https://www.nlm.nih.gov/mesh", "display": "Proportional Hazards Models", "userSelected": false}]}], "freeToShare": true}, {"type": {"text": "components (if present) include qualifier codings", "coding": [{"code": "mesh-heading", "system": "http://terminology.hl7.org/CodeSystem/cited-artifact-classification-type", "display": "MeSH heading"}]}, "component": [{"type": {"text": "qualifier"}, "classifier": [{"text": "is not a major topic"}]}, {"type": {"text": "qualifier"}, "component": [{"type": {"text": "is Major topic"}, "classifier": [{"coding": [{"code": "C49488", "system": "http://ncicb.nci.nih.gov/xml/owl/EVS/Thesaurus.owl", "display": "Yes"}]}]}], "classifier": [{"coding": [{"code": "Q000188", "system": "https://www.nlm.nih.gov/mesh", "display": "drug therapy"}]}]}, {"type": {"text": "qualifier"}, "component": [{"type": {"text": "is Major topic"}, "classifier": [{"coding": [{"code": "C49487", "system": "http://ncicb.nci.nih.gov/xml/owl/EVS/Thesaurus.owl", "display": "No"}]}]}], "classifier": [{"coding": [{"code": "Q000473", "system": "https://www.nlm.nih.gov/mesh", "display": "pathology"}]}]}], "classifier": [{"coding": [{"code": "D011471", "system": "https://www.nlm.nih.gov/mesh", "display": "Prostatic Neoplasms", "userSelected": false}]}], "freeToShare": true}, {"type": {"text": "components (if present) include qualifier codings", "coding": [{"code": "mesh-heading", "system": "http://terminology.hl7.org/CodeSystem/cited-artifact-classification-type", "display": "MeSH heading"}]}, "component": [{"type": {"text": "qualifier"}, "classifier": [{"text": "is not a major topic"}]}], "classifier": [{"coding": [{"code": "D059039", "system": "https://www.nlm.nih.gov/mesh", "display": "Standard of Care", "userSelected": false}]}], "freeToShare": true}, {"type": {"text": "components (if present) include qualifier codings", "coding": [{"code": "mesh-heading", "system": "http://terminology.hl7.org/CodeSystem/cited-artifact-classification-type", "display": "MeSH heading"}]}, "component": [{"type": {"text": "qualifier"}, "classifier": [{"text": "is not a major topic"}]}, {"type": {"text": "qualifier"}, "component": [{"type": {"text": "is Major topic"}, "classifier": [{"coding": [{"code": "C49487", "system": "http://ncicb.nci.nih.gov/xml/owl/EVS/Thesaurus.owl", "display": "No"}]}]}], "classifier": [{"coding": [{"code": "Q000008", "system": "https://www.nlm.nih.gov/mesh", "display": "administration & dosage"}]}]}], "classifier": [{"coding": [{"code": "D043823", "system": "https://www.nlm.nih.gov/mesh", "display": "Taxoids", "userSelected": false}]}], "freeToShare": true}], "resourceType": "ArtifactAssessment", "artifactReference": {"type": "Citation", "reference": "#"}}], "copyright": "https://creativecommons.org/licenses/by-nc-sa/4.0/", "extension": [{"url": "http://hl7.org/fhir/uv/ebm/StructureDefinition/artifact-publication-status", "valueCodeableConcept": {"coding": [{"code": "active", "system": "http://terminology.hl7.org/CodeSystem/cited-artifact-status-type", "display": "Active"}]}}], "publisher": "Computable Publishing LLC", "identifier": [{"type": {"text": "FEvIR Object Identifier", "coding": [{"system": "http://terminology.hl7.org/CodeSystem/v2-0203", "code": "ACSN", "display": "Accession ID"}]}, "value": "179622", "system": "https://fevir.net/FOI", "assigner": {"display": "Computable Publishing LLC"}}, {"value": "26002607", "system": "https://pubmed.ncbi.nlm.nih.gov"}], "statusDate": [{"period": {"end": "2015-03-21"}, "activity": {"coding": [{"code": "pubmed-pubstatus-received", "system": "http://hl7.org/fhir/citation-status-type", "display": "PubMed Pubstatus of Received"}]}}, {"period": {"end": "2015-05-13"}, "activity": {"coding": [{"code": "pubmed-pubstatus-accepted", "system": "http://hl7.org/fhir/citation-status-type", "display": "PubMed Pubstatus of Accepted"}]}}, {"period": {"end": "2015-05-24T06:00:00.000Z"}, "activity": {"coding": [{"code": "pubmed-pubstatus-entrez", "system": "http://hl7.org/fhir/citation-status-type", "display": "PubMed Pubstatus of Entrez"}]}}, {"period": {"end": "2015-05-24T06:00:00.000Z"}, "activity": {"coding": [{"code": "pubmed-pubstatus-pubmed", "system": "http://hl7.org/fhir/citation-status-type", "display": "PubMed Pubstatus of Pubmed"}]}}, {"period": {"end": "2016-04-22T06:00:00.000Z"}, "activity": {"coding": [{"code": "pubmed-pubstatus-medline", "system": "http://hl7.org/fhir/citation-status-type", "display": "PubMed Pubstatus of Medline"}]}}, {"period": {"end": "2016-08-01"}, "activity": {"coding": [{"code": "pubmed-pubstatus-pmc-release", "system": "http://hl7.org/fhir/citation-status-type", "display": "PubMed Pubstatus of PMC release"}]}}], "useContext": [{"code": {"code": "fevir-platform-use", "system": "http://terminology.hl7.org/CodeSystem/citation-classification-type", "display": "FEvIR Platform Use"}, "valueCodeableConcept": {"coding": [{"code": "medline-base", "system": "http://terminology.hl7.org/CodeSystem/citation-artifact-classifier", "display": "Medline Base", "userSelected": false}]}}], "approvalDate": "2016-04-21", "currentState": [{"coding": [{"code": "medline-medline", "system": "http://hl7.org/fhir/citation-status-type", "display": "Medline Citation Status of Medline"}]}, {"coding": [{"code": "pubmed-publication-status-ppublish", "system": "http://hl7.org/fhir/citation-status-type", "display": "PubMed PublicationStatus of ppublish"}]}], "resourceType": "Citation", "citedArtifact": {"title": [{"text": "Should docetaxel be standard of care for patients with metastatic hormone-sensitive prostate cancer? Pro and contra.", "type": [{"coding": [{"code": "primary", "system": "http://terminology.hl7.org/CodeSystem/title-type", "display": "Primary title"}]}], "language": {"coding": [{"system": "urn:ietf:bcp:47", "code": "en", "display": "English"}]}}], "abstract": [{"text": "Following the results of the TAX-327 study, questions have been raised as to whether administering chemotherapy to men with prostate cancer before symptomatic disease progression when receiving standard hormonal treatment can improve the duration and quality of patient survival. The GETUG-AFU-15 and CHAARTED studies both assessed the efficacy and tolerability of androgen deprivation therapy (ADT) with or without docetaxel in men with metastatic hormone-naive prostate cancer. Both studies included a mix of patients with de novo metastatic disease (\u223c75%) and patients who developed metastases following treatment of localized disease. A short course of ADT was allowed in both trials prior to accrual. Key differences between the two studies include the number of patients with high-volume metastases (GETUG-AFU-15: 52%; CHAARTED: 65%) and number of docetaxel cycles (GETUG-AFU-15: up to nine cycles; CHAARTED six cycles). Both studies reported an improvement in progression-free survival with docetaxel plus ADT versus ADT alone. The GETUG-AFU-15 did not find a significant difference in the primary end point of overall survival (OS) {hazard ratio (HR) 0.9 [95% confidence interval (CI) 0.7-1.2]; P = 0.44} for ADT plus docetaxel versus ADT alone. The CHAARTED study met the primary end point of OS [HR 0.61 (95% CI 0.47-0.80); P = 0.0003], and in a subset analysis reported the greatest improvement in OS for patients with high-volume disease [HR 0.60 (95% CI 0.45-0.81); P = 0.0006]. The following article debates the results from the GETUG-AFU-15 and CHAARTED studies and asks whether medical practice should be changed for patients with metastatic hormone-naive prostate cancer based on the results of one positive study.", "type": {"coding": [{"code": "primary-human-use", "system": "http://terminology.hl7.org/CodeSystem/cited-artifact-abstract-type", "display": "Primary human use"}]}, "copyright": "\u00a9 The Author 2015. Published by Oxford University Press on behalf of the European Society for Medical Oncology. All rights reserved. For permissions, please email: journals.permissions@oup.com."}], "relatesTo": [{"type": "cites", "citation": "Wu JN, Fish KM, Evans CP et al. . No improvement noted in overall or cause-specific survival for men presenting with metastatic prostate cancer over a 20-year period. Cancer 2013; 120(6): 818\u2013823.", "classifier": [{"coding": [{"code": "D016428", "system": "http://hl7.org/fhir/citation-artifact-classifier", "display": "Journal Article"}]}], "targetReference": {"type": "Citation", "reference": "https://pubmed.ncbi.nlm.nih.gov/24258693/", "identifier": {"value": "24258693", "system": "https://pubmed.ncbi.nlm.nih.gov", "assigner": {"display": "NLM"}}}}, {"type": "cites", "citation": "Center MM, Jemal A, Lortet-Tieulent J et al. . International variation in prostate cancer incidence and mortality rates. Eur Urol 2012; 61(6): 1079\u20131092.", "classifier": [{"coding": [{"code": "D016428", "system": "http://hl7.org/fhir/citation-artifact-classifier", "display": "Journal Article"}]}], "targetReference": {"type": "Citation", "reference": "https://pubmed.ncbi.nlm.nih.gov/22424666/", "identifier": {"value": "22424666", "system": "https://pubmed.ncbi.nlm.nih.gov", "assigner": {"display": "NLM"}}}}, {"type": "cites", "citation": "Cullen J, Elsamanoudi S, Brassell SA et al. . The burden of prostate cancer in Asian nations. J Carcinog 2012; 11: 7.", "classifier": [{"coding": [{"code": "D016428", "system": "http://hl7.org/fhir/citation-artifact-classifier", "display": "Journal Article"}]}], "targetReference": {"type": "Citation", "reference": "https://pubmed.ncbi.nlm.nih.gov/22529743/", "identifier": {"value": "22529743", "system": "https://pubmed.ncbi.nlm.nih.gov", "assigner": {"display": "NLM"}}}}, {"type": "cites", "citation": "Patrikidou A, Loriot Y, Eymard J-C et al. . Who dies from prostate cancer? Prostate Cancer Prostatic Dis 2014; 17(4): 348\u2013352.", "classifier": [{"coding": [{"code": "D016428", "system": "http://hl7.org/fhir/citation-artifact-classifier", "display": "Journal Article"}]}], "targetReference": {"type": "Citation", "reference": "https://pubmed.ncbi.nlm.nih.gov/25311767/", "identifier": {"value": "25311767", "system": "https://pubmed.ncbi.nlm.nih.gov", "assigner": {"display": "NLM"}}}}, {"type": "cites", "citation": "Sweeney C, Carducci MA, Eisenberger MA et al. . Chemohormonal therapy versus hormonal therapy for hormone naive newly metastatic prostate cancer: ECOG-led randomized trial. Ann Oncol 2014; (Suppl 4): Abstr 7560."}, {"type": "cites", "citation": "Gravis G, Fizazi K, Joly F et al. . Androgen-deprivation therapy alone or with docetaxel in non-castrate metastatic prostate cancer (GETUG-AFU 15): a randomised, open-label, phase 3 trial. Lancet Oncol 2013; 14(2): 149\u2013158.", "classifier": [{"coding": [{"code": "D016428", "system": "http://hl7.org/fhir/citation-artifact-classifier", "display": "Journal Article"}]}], "targetReference": {"type": "Citation", "reference": "https://pubmed.ncbi.nlm.nih.gov/23306100/", "identifier": {"value": "23306100", "system": "https://pubmed.ncbi.nlm.nih.gov", "assigner": {"display": "NLM"}}}}, {"type": "cites", "citation": "Ahmed M, Li L-C. Adaptation and clonal selection models of castration-resistant prostate cancer: current perspective. Int J Urol 2013; 20(4): 362\u2013371.", "classifier": [{"coding": [{"code": "D016428", "system": "http://hl7.org/fhir/citation-artifact-classifier", "display": "Journal Article"}]}], "targetReference": {"type": "Citation", "reference": "https://pubmed.ncbi.nlm.nih.gov/23163774/", "identifier": {"value": "23163774", "system": "https://pubmed.ncbi.nlm.nih.gov", "assigner": {"display": "NLM"}}}}, {"type": "cites", "citation": "Tannock IF, de Wit R, Berry WR et al. . Docetaxel plus prednisone or mitoxantrone plus prednisone for advanced prostate cancer. N Engl J Med 2004; 351(15): 1502\u20131512.", "classifier": [{"coding": [{"code": "D016428", "system": "http://hl7.org/fhir/citation-artifact-classifier", "display": "Journal Article"}]}], "targetReference": {"type": "Citation", "reference": "https://pubmed.ncbi.nlm.nih.gov/15470213/", "identifier": {"value": "15470213", "system": "https://pubmed.ncbi.nlm.nih.gov", "assigner": {"display": "NLM"}}}}, {"type": "cites", "citation": "Berthold DR, Pond GR, Soban F et al. . Docetaxel plus prednisone or mitoxantrone plus prednisone for advanced prostate cancer: updated survival in the TAX 327 study. J Clin Oncol 2008; 26(2): 242\u2013245.", "classifier": [{"coding": [{"code": "D016428", "system": "http://hl7.org/fhir/citation-artifact-classifier", "display": "Journal Article"}]}], "targetReference": {"type": "Citation", "reference": "https://pubmed.ncbi.nlm.nih.gov/18182665/", "identifier": {"value": "18182665", "system": "https://pubmed.ncbi.nlm.nih.gov", "assigner": {"display": "NLM"}}}}, {"type": "cites", "citation": "Petrylak DP, Tangen CM, Hussain MHA et al. . Docetaxel and estramustine compared with mitoxantrone and prednisone for advanced refractory prostate cancer. N Engl J Med 2004; 351(15): 1513\u20131520.", "classifier": [{"coding": [{"code": "D016428", "system": "http://hl7.org/fhir/citation-artifact-classifier", "display": "Journal Article"}]}], "targetReference": {"type": "Citation", "reference": "https://pubmed.ncbi.nlm.nih.gov/15470214/", "identifier": {"value": "15470214", "system": "https://pubmed.ncbi.nlm.nih.gov", "assigner": {"display": "NLM"}}}}, {"type": "cites", "citation": "Gravis G, Boher J-M, Joly F et al. . Androgen deprivation therapy (ADT) plus docetaxel (D) versus ADT alone for hormone-na\u00efve metastatic prostate cancer (Pca): long-term analysis of the GETUG-AFU-15 phase III trial. J Clin Oncol 2015; (GU suppl): abstr 140."}, {"type": "cites", "citation": "Sweeney C, Chen Y-H, Carducci MA et al. . Impact on overall survival with chemohormonal therapy versus hormone therapy for hormone-sensitive newly metastatic prostate cancer: an ECOG-led phase III randomized trial. J Clin Oncol 2014; 32(5s): abstr LBA2."}, {"type": "cites", "citation": "Fitzpatrick JM, de Wit R. Taxane mechanisms of action: potential implications for treatment sequencing in metastatic castration-resistant prostate cancer. Eur Urol 2014; 65(6): 1198\u20131204.", "classifier": [{"coding": [{"code": "D016428", "system": "http://hl7.org/fhir/citation-artifact-classifier", "display": "Journal Article"}]}], "targetReference": {"type": "Citation", "reference": "https://pubmed.ncbi.nlm.nih.gov/23910941/", "identifier": {"value": "23910941", "system": "https://pubmed.ncbi.nlm.nih.gov", "assigner": {"display": "NLM"}}}}, {"type": "cites", "citation": "Harris WP, Mostaghel EA, Nelson PS, Montgomery RB. Androgen deprivation therapy: progress in understanding mechanisms of resistance and optimizing androgen depletion. Nat Clin Pract Urol 2009; 6(2): 76\u201385.", "classifier": [{"coding": [{"code": "D016428", "system": "http://hl7.org/fhir/citation-artifact-classifier", "display": "Journal Article"}]}], "targetReference": {"type": "Citation", "reference": "https://pubmed.ncbi.nlm.nih.gov/19198621/", "identifier": {"value": "19198621", "system": "https://pubmed.ncbi.nlm.nih.gov", "assigner": {"display": "NLM"}}}}, {"type": "cites", "citation": "van Soest RJ, van Royen ME, de Morr\u00e9e ES et al. . Cross-resistance between taxanes and new hormonal agents abiraterone and enzalutamide may affect drug sequence choices in metastatic castration-resistant prostate cancer. Eur J Cancer 2013; 49(18): 3821\u20133830.", "classifier": [{"coding": [{"code": "D016428", "system": "http://hl7.org/fhir/citation-artifact-classifier", "display": "Journal Article"}]}], "targetReference": {"type": "Citation", "reference": "https://pubmed.ncbi.nlm.nih.gov/24200698/", "identifier": {"value": "24200698", "system": "https://pubmed.ncbi.nlm.nih.gov", "assigner": {"display": "NLM"}}}}, {"type": "cites", "citation": "Mezynski J, Pezaro C, Bianchini D et al. . Antitumour activity of docetaxel following treatment with the CYP17A1 inhibitor abiraterone: clinical evidence for cross-resistance? Ann Oncol 2012; 23(11): 2943\u20132947.", "classifier": [{"coding": [{"code": "D016428", "system": "http://hl7.org/fhir/citation-artifact-classifier", "display": "Journal Article"}]}], "targetReference": {"type": "Citation", "reference": "https://pubmed.ncbi.nlm.nih.gov/22771826/", "identifier": {"value": "22771826", "system": "https://pubmed.ncbi.nlm.nih.gov", "assigner": {"display": "NLM"}}}}, {"type": "cites", "citation": "Nakouzi Al N, Le Moulec S, Albiges L et al. . Cabazitaxel remains active in patients progressing after docetaxel followed by novel androgen receptor pathway targeted therapies. Eur Urol 2014; 66: e71\u2013e72.", "classifier": [{"coding": [{"code": "D016428", "system": "http://hl7.org/fhir/citation-artifact-classifier", "display": "Journal Article"}]}], "targetReference": {"type": "Citation", "reference": "https://pubmed.ncbi.nlm.nih.gov/24837187/", "identifier": {"value": "24837187", "system": "https://pubmed.ncbi.nlm.nih.gov", "assigner": {"display": "NLM"}}}}, {"type": "cites", "citation": "Payne H, Bahl A, Mason M et al. . Optimizing the care of patients with advanced prostate cancer in the UK: current challenges and future opportunities. BJU Int 2012; 110(5): 658\u2013667.", "classifier": [{"coding": [{"code": "D016428", "system": "http://hl7.org/fhir/citation-artifact-classifier", "display": "Journal Article"}]}], "targetReference": {"type": "Citation", "reference": "https://pubmed.ncbi.nlm.nih.gov/22429837/", "identifier": {"value": "22429837", "system": "https://pubmed.ncbi.nlm.nih.gov", "assigner": {"display": "NLM"}}}}, {"type": "cites", "citation": "Droz J-P, Aapro M, Balducci L et al. . Management of prostate cancer in older patients: updated recommendations of a working group of the International Society of Geriatric Oncology. Lancet Oncol 2014; 15(9): e404\u2013e414.", "classifier": [{"coding": [{"code": "D016428", "system": "http://hl7.org/fhir/citation-artifact-classifier", "display": "Journal Article"}]}], "targetReference": {"type": "Citation", "reference": "https://pubmed.ncbi.nlm.nih.gov/25079103/", "identifier": {"value": "25079103", "system": "https://pubmed.ncbi.nlm.nih.gov", "assigner": {"display": "NLM"}}}}, {"type": "cites", "citation": "Stone P, Hardy J, Huddart R et al. . Fatigue in patients with prostate cancer receiving hormone therapy. Eur J Cancer 2000; 36(9): 1134\u20131141.", "classifier": [{"coding": [{"code": "D016428", "system": "http://hl7.org/fhir/citation-artifact-classifier", "display": "Journal Article"}]}], "targetReference": {"type": "Citation", "reference": "https://pubmed.ncbi.nlm.nih.gov/10854947/", "identifier": {"value": "10854947", "system": "https://pubmed.ncbi.nlm.nih.gov", "assigner": {"display": "NLM"}}}}, {"type": "cites", "citation": "Nguyen PL, Alibhai SMH, Basaria S et al. . Adverse effects of androgen deprivation therapy and strategies to mitigate them. Eur Urol 2015; 67(5): 825\u2013836.", "classifier": [{"coding": [{"code": "D016428", "system": "http://hl7.org/fhir/citation-artifact-classifier", "display": "Journal Article"}]}], "targetReference": {"type": "Citation", "reference": "https://pubmed.ncbi.nlm.nih.gov/25097095/", "identifier": {"value": "25097095", "system": "https://pubmed.ncbi.nlm.nih.gov", "assigner": {"display": "NLM"}}}}, {"type": "cites", "citation": "Loriot Y, Fizazi K. Taxanes: still a major weapon in the armamentarium against prostate cancer. Eur Urol 2013; 63(6): 983\u2013985.", "classifier": [{"coding": [{"code": "D016428", "system": "http://hl7.org/fhir/citation-artifact-classifier", "display": "Journal Article"}]}], "targetReference": {"type": "Citation", "reference": "https://pubmed.ncbi.nlm.nih.gov/23395593/", "identifier": {"value": "23395593", "system": "https://pubmed.ncbi.nlm.nih.gov", "assigner": {"display": "NLM"}}}}, {"type": "cites", "citation": "Gerritse FL, Meulenbeld HJ, Roodhart JML et al. . Analysis of docetaxel therapy in elderly (\u226570 years) castration resistant prostate cancer patients enrolled in the Netherlands Prostate Study. Eur J Cancer 2013; 49(15): 3176\u20133183.", "classifier": [{"coding": [{"code": "D016428", "system": "http://hl7.org/fhir/citation-artifact-classifier", "display": "Journal Article"}]}], "targetReference": {"type": "Citation", "reference": "https://pubmed.ncbi.nlm.nih.gov/23849828/", "identifier": {"value": "23849828", "system": "https://pubmed.ncbi.nlm.nih.gov", "assigner": {"display": "NLM"}}}}, {"type": "cites", "citation": "Fizazi K, Abrahamsson P-A, Ahlgren G et al. . Achievements and perspectives in prostate cancer phase 3 trials from Genitourinary Research Groups in Europe: introducing the Prostate Cancer Consortium in Europe. Eur Urol 2015; 67(5): 904\u2013912.", "classifier": [{"coding": [{"code": "D016428", "system": "http://hl7.org/fhir/citation-artifact-classifier", "display": "Journal Article"}]}], "targetReference": {"type": "Citation", "reference": "https://pubmed.ncbi.nlm.nih.gov/25218582/", "identifier": {"value": "25218582", "system": "https://pubmed.ncbi.nlm.nih.gov", "assigner": {"display": "NLM"}}}}, {"type": "cites", "citation": "Eisenberger MA, Blumenstein BA, Crawford ED et al. . Bilateral orchiectomy with or without flutamide for metastatic prostate cancer. N Engl J Med 1998; 339(15): 1036\u20131042.", "classifier": [{"coding": [{"code": "D016428", "system": "http://hl7.org/fhir/citation-artifact-classifier", "display": "Journal Article"}]}], "targetReference": {"type": "Citation", "reference": "https://pubmed.ncbi.nlm.nih.gov/9761805/", "identifier": {"value": "9761805", "system": "https://pubmed.ncbi.nlm.nih.gov", "assigner": {"display": "NLM"}}}}, {"type": "cites", "citation": "Crawford ED, Eisenberger MA, McLeod DG et al. . A controlled trial of leuprolide with and without flutamide in prostatic carcinoma. N Engl J Med 1989; 321(7): 419\u2013424.", "classifier": [{"coding": [{"code": "D016428", "system": "http://hl7.org/fhir/citation-artifact-classifier", "display": "Journal Article"}]}], "targetReference": {"type": "Citation", "reference": "https://pubmed.ncbi.nlm.nih.gov/2503724/", "identifier": {"value": "2503724", "system": "https://pubmed.ncbi.nlm.nih.gov", "assigner": {"display": "NLM"}}}}, {"type": "cites", "citation": "Hussain M, Tangen CM, Berry DL et al. . Intermittent versus continuous androgen deprivation in prostate cancer. N Engl J Med 2013; 368(14): 1314\u20131325.", "classifier": [{"coding": [{"code": "D016428", "system": "http://hl7.org/fhir/citation-artifact-classifier", "display": "Journal Article"}]}], "targetReference": {"type": "Citation", "reference": "https://pubmed.ncbi.nlm.nih.gov/23550669/", "identifier": {"value": "23550669", "system": "https://pubmed.ncbi.nlm.nih.gov", "assigner": {"display": "NLM"}}}}, {"type": "cites", "citation": "Millikan RE, Wen S, Pagliaro LC et al. . Phase III trial of androgen ablation with or without three cycles of systemic chemotherapy for advanced prostate cancer. J Clin Oncol 2008; 26(36): 5936\u20135942.", "classifier": [{"coding": [{"code": "D016428", "system": "http://hl7.org/fhir/citation-artifact-classifier", "display": "Journal Article"}]}], "targetReference": {"type": "Citation", "reference": "https://pubmed.ncbi.nlm.nih.gov/19029421/", "identifier": {"value": "19029421", "system": "https://pubmed.ncbi.nlm.nih.gov", "assigner": {"display": "NLM"}}}}, {"type": "cites", "citation": "Tait C, Moore D, Hodgson C et al. . Quantification of skeletal metastases in castrate-resistant prostate cancer predicts progression-free and overall survival. BJU Int 2014; 114(6b): E70\u2013E73.", "classifier": [{"coding": [{"code": "D016428", "system": "http://hl7.org/fhir/citation-artifact-classifier", "display": "Journal Article"}]}], "targetReference": {"type": "Citation", "reference": "https://pubmed.ncbi.nlm.nih.gov/24589330/", "identifier": {"value": "24589330", "system": "https://pubmed.ncbi.nlm.nih.gov", "assigner": {"display": "NLM"}}}}, {"type": "cites", "citation": "Gravis G, Boher J-M, Fizazi K et al. . Prognostic factors for survival in noncastrate metastatic prostate cancer: validation of the Glass Model and development of a novel simplified prognostic model. Eur Urol 2014. Sep 29 [epub ahead of print], doi: 10.1016/j.eururo.2014.09.022.", "classifier": [{"coding": [{"code": "D016428", "system": "http://hl7.org/fhir/citation-artifact-classifier", "display": "Journal Article"}]}], "targetReference": {"type": "Citation", "reference": "https://pubmed.ncbi.nlm.nih.gov/25277272/", "identifier": {"value": "25277272", "system": "https://pubmed.ncbi.nlm.nih.gov", "assigner": {"display": "NLM"}}}}, {"type": "cites", "citation": "James ND, Spears MR, Clarke NW et al. . Survival with newly diagnosed metastatic prostate cancer in the \u2018docetaxel era\u2019: data from 917 patients in the control arm of the STAMPEDE Trial (MRC PR08, CRUK/06/019). Eur Urol 2015; 67(6): 1028\u20131038.", "classifier": [{"coding": [{"code": "D016428", "system": "http://hl7.org/fhir/citation-artifact-classifier", "display": "Journal Article"}]}], "targetReference": {"type": "Citation", "reference": "https://pubmed.ncbi.nlm.nih.gov/25301760/", "identifier": {"value": "25301760", "system": "https://pubmed.ncbi.nlm.nih.gov", "assigner": {"display": "NLM"}}}}, {"type": "cites", "citation": "Haldar S, Basu A, Croce CM. Bcl2 is the guardian of microtubule integrity. Cancer Res 1997; 57(2): 229\u2013233.", "classifier": [{"coding": [{"code": "D016428", "system": "http://hl7.org/fhir/citation-artifact-classifier", "display": "Journal Article"}]}], "targetReference": {"type": "Citation", "reference": "https://pubmed.ncbi.nlm.nih.gov/9000560/", "identifier": {"value": "9000560", "system": "https://pubmed.ncbi.nlm.nih.gov", "assigner": {"display": "NLM"}}}}, {"type": "cites", "citation": "Jordan MA, Wilson L. Microtubules as a target for anticancer drugs. Nat Rev Cancer 2004; 4(4): 253\u2013265.", "classifier": [{"coding": [{"code": "D016428", "system": "http://hl7.org/fhir/citation-artifact-classifier", "display": "Journal Article"}]}], "targetReference": {"type": "Citation", "reference": "https://pubmed.ncbi.nlm.nih.gov/15057285/", "identifier": {"value": "15057285", "system": "https://pubmed.ncbi.nlm.nih.gov", "assigner": {"display": "NLM"}}}}, {"type": "cites", "citation": "Mercader M, Sengupta S, Bodner BK et al. . Early effects of pharmacological androgen deprivation in human prostate cancer. BJU Int 2007; 99(1): 60\u201367.", "classifier": [{"coding": [{"code": "D016428", "system": "http://hl7.org/fhir/citation-artifact-classifier", "display": "Journal Article"}]}], "targetReference": {"type": "Citation", "reference": "https://pubmed.ncbi.nlm.nih.gov/17227493/", "identifier": {"value": "17227493", "system": "https://pubmed.ncbi.nlm.nih.gov", "assigner": {"display": "NLM"}}}}, {"type": "cites", "citation": "Ioannidis J. Why most published research findings are false. PLoS Med 2005; 2(8): e124.", "classifier": [{"coding": [{"code": "D016428", "system": "http://hl7.org/fhir/citation-artifact-classifier", "display": "Journal Article"}]}], "targetReference": {"type": "Citation", "reference": "https://pubmed.ncbi.nlm.nih.gov/16060722/", "identifier": {"value": "16060722", "system": "https://pubmed.ncbi.nlm.nih.gov", "assigner": {"display": "NLM"}}}}, {"type": "cites", "citation": "Templeton AJ, Vera-Badillo FE, Wang L et al. . Translating clinical trials to clinical practice: outcomes of men with metastatic castration resistant prostate cancer treated with docetaxel and prednisone in and out of clinical trials. Ann Oncol 2013; 24(12): 2972\u20132977.", "classifier": [{"coding": [{"code": "D016428", "system": "http://hl7.org/fhir/citation-artifact-classifier", "display": "Journal Article"}]}], "targetReference": {"type": "Citation", "reference": "https://pubmed.ncbi.nlm.nih.gov/24126362/", "identifier": {"value": "24126362", "system": "https://pubmed.ncbi.nlm.nih.gov", "assigner": {"display": "NLM"}}}}, {"type": "cites", "citation": "Gravis G, Marino P, Joly F et al. . Patients self-assessment versus investigators' evaluation in a phase III trial in non-castrate metastatic prostate cancer (GETUG-AFU 15). Eur J Cancer 2014; 50(5): 953\u2013962.", "classifier": [{"coding": [{"code": "D016428", "system": "http://hl7.org/fhir/citation-artifact-classifier", "display": "Journal Article"}]}], "targetReference": {"type": "Citation", "reference": "https://pubmed.ncbi.nlm.nih.gov/24424105/", "identifier": {"value": "24424105", "system": "https://pubmed.ncbi.nlm.nih.gov", "assigner": {"display": "NLM"}}}}], "identifier": [{"value": "26002607", "system": "https://pubmed.ncbi.nlm.nih.gov"}, {"value": "PMC4511224", "system": "https://www.ncbi.nlm.nih.gov/pmc/"}, {"value": "10.1093/annonc/mdv245", "system": "https://doi.org"}, {"type": {"text": "pii", "coding": [{"system": "http://terminology.hl7.org/CodeSystem/v2-0203", "code": "ACSN", "display": "Accession ID"}]}, "value": "S0923-7534(19)31866-6"}], "webLocation": [{"url": "https://pubmed.ncbi.nlm.nih.gov/26002607/", "classifier": [{"coding": [{"code": "abstract", "system": "http://terminology.hl7.org/CodeSystem/artifact-url-classifier", "display": "Abstract"}]}]}, {"url": "https://doi.org/10.1093/annonc/mdv245", "classifier": [{"coding": [{"code": "doi-based", "system": "http://terminology.hl7.org/CodeSystem/artifact-url-classifier", "display": "DOI Based"}]}]}], "classification": [{"type": {"coding": [{"code": "publishing-model", "system": "http://terminology.hl7.org/CodeSystem/cited-artifact-classification-type", "display": "Publishing Model", "userSelected": false}]}, "classifier": [{"coding": [{"code": "Print-Electronic", "system": "http://terminology.hl7.org/CodeSystem/citation-artifact-classifier", "display": "Print Electronic", "userSelected": false}]}]}, {"type": {"coding": [{"code": "keyword", "system": "http://terminology.hl7.org/CodeSystem/cited-artifact-classification-type", "display": "Keyword", "userSelected": false}]}, "artifactAssessment": [{"type": "ArtifactAssessment", "display": "Keywords provided by NOTNLM", "reference": "#keywords0"}]}, {"type": {"coding": [{"code": "chemical", "system": "http://terminology.hl7.org/CodeSystem/cited-artifact-classification-type", "display": "Chemical", "userSelected": false}]}, "classifier": [{"coding": [{"code": "D000726", "system": "https://www.nlm.nih.gov/mesh", "display": "Androgen Antagonists", "userSelected": false}]}, {"coding": [{"code": "D043823", "system": "https://www.nlm.nih.gov/mesh", "display": "Taxoids", "userSelected": false}]}, {"coding": [{"code": "15H5577CQD", "system": "https://www.cas.org/support/documentation/chemical-substances", "userSelected": false}, {"code": "D000077143", "system": "https://www.nlm.nih.gov/mesh", "display": "Docetaxel", "userSelected": false}]}, {"coding": [{"code": "33515-09-2", "system": "https://www.cas.org/support/documentation/chemical-substances", "userSelected": false}, {"code": "D007987", "system": "https://www.nlm.nih.gov/mesh", "display": "Gonadotropin-Releasing Hormone", "userSelected": false}]}]}, {"type": {"coding": [{"code": "mesh-heading", "system": "http://terminology.hl7.org/CodeSystem/cited-artifact-classification-type", "display": "MeSH heading"}]}, "artifactAssessment": [{"type": "ArtifactAssessment", "reference": "#meshHeading0"}]}, {"type": {"coding": [{"code": "publication-type", "system": "http://terminology.hl7.org/CodeSystem/cited-artifact-classification-type", "display": "Publication type"}]}, "classifier": [{"coding": [{"code": "D016428", "system": "https://www.nlm.nih.gov/mesh", "display": "Journal Article", "userSelected": false}]}, {"coding": [{"code": "D013485", "system": "https://www.nlm.nih.gov/mesh", "display": "Research Support, Non-U.S. Gov't", "userSelected": false}]}, {"coding": [{"code": "D016454", "system": "https://www.nlm.nih.gov/mesh", "display": "Review", "userSelected": false}]}]}, {"type": {"coding": [{"code": "knowledge-artifact-type", "system": "http://terminology.hl7.org/CodeSystem/cited-artifact-classification-type", "display": "Knowledge Artifact Type", "userSelected": false}]}, "classifier": [{"coding": [{"code": "D016428", "system": "http://terminology.hl7.org/CodeSystem/citation-artifact-classifier", "display": "Journal Article", "userSelected": false}]}], "artifactAssessment": [{"display": "Classifier added by Computable Publishing LLC"}]}, {"type": {"coding": [{"code": "citation-subset", "system": "http://terminology.hl7.org/CodeSystem/cited-artifact-classification-type", "display": "Citation subset", "userSelected": false}]}, "classifier": [{"coding": [{"code": "IM", "system": "https://www.nlm.nih.gov/bsd/licensee/elements_descriptions.html#citationsubset", "display": "IM", "userSelected": false}]}]}], "contributorship": {"entry": [{"affiliation": [{"display": "Department of Cancer Medicine, Gustave Roussy, University of Paris Sud, Paris, France."}], "contributor": {"type": "Practitioner", "display": "Fizazi K", "reference": "#contributor0"}, "forenameInitials": "K"}, {"affiliation": [{"display": "Med Ed, RMC, Exeter, UK."}], "contributor": {"type": "Practitioner", "display": "Jenkins C", "reference": "#contributor1"}, "forenameInitials": "C"}, {"affiliation": [{"display": "Princess Margaret Cancer Centre and University of Toronto, Toronto, Canada ian.tannock@uhn.ca."}], "contributor": {"type": "Practitioner", "display": "Tannock IF", "reference": "#contributor2"}, "forenameInitials": "IF"}], "complete": true}, "publicationForm": [{"issue": "8", "volume": "26", "pageString": "1660-7", "articleDate": "2015-08", "citedMedium": {"coding": [{"code": "internet", "system": "http://terminology.hl7.org/CodeSystem/cited-medium", "display": "Internet"}]}, "publishedIn": {"type": {"coding": [{"code": "D020492", "system": "http://terminology.hl7.org/CodeSystem/published-in-type", "display": "Periodical"}]}, "title": "Annals of oncology : official journal of the European Society for Medical Oncology", "identifier": [{"type": {"text": "Electronic ISSN Type", "coding": [{"code": "Electronic", "system": "https://www.nlm.nih.gov/bsd/licensee/elements_descriptions.html#issn", "display": "Electronic"}]}, "value": "1569-8041", "system": "https://portal.issn.org"}, {"type": {"text": "ISOAbbreviation", "coding": [{"system": "http://terminology.hl7.org/CodeSystem/v2-0203", "code": "XX", "display": "Organization identifier"}]}, "value": "Ann Oncol", "system": "https://www.issn.org/services/online-services/access-to-the-ltwa/"}, {"type": {"text": "ISSN Linking", "coding": [{"system": "http://terminology.hl7.org/CodeSystem/v2-0203", "code": "XX", "display": "Organization identifier"}]}, "value": "0923-7534", "system": "https://www.issn.org/understanding-the-issn/assignment-rules/the-issn-l-for-publications-on-multiple-media/"}, {"type": {"text": "Medline Title Abbreviation", "coding": [{"system": "http://terminology.hl7.org/CodeSystem/v2-0203", "code": "XX", "display": "Organization identifier"}]}, "value": "Ann Oncol", "system": "https://www.nlm.nih.gov/tsd/cataloging/contructitleabbre.html"}, {"type": {"text": "NLM Unique ID", "coding": [{"system": "http://terminology.hl7.org/CodeSystem/v2-0203", "code": "XX", "display": "Organization identifier"}]}, "value": "9007735", "system": "https://locatorplus.gov/cgi-bin/Pwebrecon.cgi?DB=local"}], "publisherLocation": "England"}}, {"articleDate": "2015-05-22", "citedMedium": {"coding": [{"code": "internet-without-issue", "system": "http://terminology.hl7.org/CodeSystem/cited-medium", "display": "Internet without issue"}]}}]}, "classification": [{"type": {"coding": [{"code": "citation-source", "system": "http://terminology.hl7.org/CodeSystem/citation-classification-type", "display": "Citation Source"}]}, "classifier": [{"text": "MEDLINE"}]}, {"type": {"coding": [{"code": "medline-owner", "system": "http://terminology.hl7.org/CodeSystem/citation-classification-type", "display": "MEDLINE Citation Owner"}]}, "classifier": [{"coding": [{"code": "NLM", "system": "https://www.nlm.nih.gov/bsd/licensee/elements_descriptions.html#owner_value", "display": "National Library of Medicine, Index Section", "userSelected": false}]}]}], "lastReviewDate": "2024-05-16", "description": "This Citation Resource is referenced in an example for the EBMonFHIR Implementation Guide."}