{"id": "139860", "url": "https://fevir.net/resources/Citation/139860", "meta": {"profile": ["http://hl7.org/fhir/uv/ebm/StructureDefinition/book-part-citation"], "versionId": "27", "lastUpdated": "2025-10-13T09:55:39.733Z"}, "title": "BookPartCitation: Chapter 3 of Crossing the Quality Chasm: A New Health System for the 21st Century - without baseCitation", "author": [{"name": "Brian S. Alper"}], "status": "active", "contact": [{"telecom": [{"value": "support@computablepublishing.com", "system": "email"}]}], "summary": [{"text": "Formulating New Rules to Redesign and Improve Care [Book Part], chapters 3. Contributors:  Institute of Medicine (US) Committee on Quality of Health Care in America [Author];  Institute of Medicine (US) Committee on Quality of Health Care in America [Book editor]. In: Crossing the Quality Chasm: A New Health System for the 21st Century, Bookshelf ID NBK222277. Published 2001. Available at: https://www.ncbi.nlm.nih.gov/books/NBK222277/.", "style": {"coding": [{"code": "comppub", "system": "http://hl7.org/fhir/citation-summary-style", "display": "Computable Publishing"}]}}], "contained": [{"id": "contributor0", "name": "Institute of Medicine (US) Committee on Quality of Health Care in America", "resourceType": "Organization"}, {"id": "contributor1", "name": "Institute of Medicine (US) Committee on Quality of Health Care in America", "resourceType": "Organization"}], "copyright": "https://creativecommons.org/licenses/by-nc-sa/4.0/", "extension": [{"url": "http://hl7.org/fhir/uv/ebm/StructureDefinition/artifact-publication-status", "valueCodeableConcept": {"coding": [{"code": "active", "system": "http://terminology.hl7.org/CodeSystem/cited-artifact-status-type", "display": "Active"}]}}], "publisher": "Computable Publishing LLC", "identifier": [{"type": {"text": "FEvIR Object Identifier", "coding": [{"system": "http://terminology.hl7.org/CodeSystem/v2-0203", "code": "ACSN", "display": "Accession ID"}]}, "value": "139860", "system": "https://fevir.net/FOI", "assigner": {"display": "Computable Publishing LLC"}}, {"value": "25057539", "system": "https://pubmed.ncbi.nlm.nih.gov", "assigner": {"display": "NLM"}}], "useContext": [{"code": {"code": "fevir-platform-use", "system": "http://terminology.hl7.org/CodeSystem/citation-classification-type", "display": "FEvIR Platform Use"}, "valueCodeableConcept": {"coding": [{"code": "project-specific", "system": "http://terminology.hl7.org/CodeSystem/citation-artifact-classifier", "display": "Project Specific"}]}}], "description": "An example to map the BookCitation Profile", "currentState": [{"coding": [{"code": "pubmed-pubstatus-ppublish", "system": "http://hl7.org/fhir/citation-status-type", "display": "PubMed Pubstatus of Ppublish"}]}], "resourceType": "Citation", "citedArtifact": {"part": {"type": {"text": "chapters", "coding": [{"code": "chapters", "system": "https://fevir.net/resources/CodeSystem/179423", "display": "chapters"}]}, "value": "3"}, "title": [{"text": "Formulating New Rules to Redesign and Improve Care", "type": [{"text": "Chapter title", "coding": [{"code": "primary", "system": "http://terminology.hl7.org/CodeSystem/title-type", "display": "Primary title"}]}], "language": {"coding": [{"system": "urn:ietf:bcp:47", "code": "en-US"}]}}], "identifier": [{"type": {"text": "Bookshelf ID", "coding": [{"system": "http://terminology.hl7.org/CodeSystem/v2-0203", "code": "ACSN", "display": "Accession ID"}]}, "value": "NBK222277", "assigner": {"display": "NLM"}}], "webLocation": [{"url": "https://www.ncbi.nlm.nih.gov/books/NBK222277/", "classifier": [{"coding": [{"code": "full-text", "system": "http://terminology.hl7.org/CodeSystem/artifact-url-classifier", "display": "Full-Text"}]}]}, {"url": "https://doi.org/10.17226/10027", "classifier": [{"text": "Book", "coding": [{"code": "D001877", "system": "http://hl7.org/fhir/citation-artifact-classifier", "display": "Book"}]}]}], "classification": [{"type": {"coding": [{"code": "knowledge-artifact-type", "system": "http://terminology.hl7.org/CodeSystem/cited-artifact-classification-type", "display": "Knowledge Artifact Type"}]}, "classifier": [{"text": "Book Part", "coding": [{"code": "classified-as-book-part", "system": "https://fevir.net/resources/CodeSystem/179423", "display": "Book Part"}]}]}], "contributorship": {"entry": [{"role": {"coding": [{"code": "author", "system": "http://hl7.org/fhir/contributor-role", "display": "Author/Creator"}]}, "contributor": {"type": "Organization", "reference": "#contributor0"}}, {"role": {"text": "Book Editor", "coding": [{"code": "editor", "system": "http://hl7.org/fhir/contributor-role", "display": "Editor"}]}, "contributor": {"type": "Organization", "reference": "#contributor1"}}], "complete": true}, "publicationForm": [{"language": [{"coding": [{"system": "urn:ietf:bcp:47", "code": "en", "display": "English"}]}], "copyright": "Copyright 2001 by the National Academy of Sciences. All rights reserved.", "articleDate": "2001", "publishedIn": {"type": {"coding": [{"code": "D001877", "system": "http://terminology.hl7.org/CodeSystem/published-in-type", "display": "Book"}]}, "title": "Crossing the Quality Chasm: A New Health System for the 21st Century", "publisher": {"display": "National Academies Press (US)"}, "identifier": [{"value": "25057539", "system": "https://pubmed.ncbi.nlm.nih.gov", "assigner": {"display": "NLM"}}, {"type": {"text": "Bookshelf ID", "coding": [{"system": "http://terminology.hl7.org/CodeSystem/v2-0203", "code": "ACSN", "display": "Accession ID"}]}, "value": "NBK222274", "assigner": {"display": "NLM"}}, {"value": "10.17226/10027", "system": "https://doi.org"}, {"value": "nap10027", "assigner": {"display": "National Academies Press (US)"}}, {"type": {"text": "ISBN", "coding": [{"system": "https://fevir.net/resources/CodeSystem/179423", "code": "object-identifier", "display": "Object Identifier"}]}, "value": "0309072808"}], "publisherLocation": "Washington (DC)"}}]}, "relatesTo": [{"type": "derived-from", "targetUri": "https://eutils.ncbi.nlm.nih.gov/entrez/eutils/efetch.fcgi?db=pubmed&id=25057539&retmode=xml"}]}