{"id": "179630", "url": "https://fevir.net/resources/Citation/179630", "meta": {"profile": ["http://hl7.org/fhir/uv/ebm/StructureDefinition/journal-article-citation"], "versionId": "19", "lastUpdated": "2025-10-13T12:34:35.118Z"}, "title": "26092557 Feasibility study of a randomized controlled trial comparing docetaxel chemotherapy and androgen deprivation therapy with sequential prostatic biopsies from patients with advanced non-castration-resistant prostate cancer.", "author": [{"name": "Computable Publishing\u00ae: MEDLINE-to-FEvIR Converter"}], "status": "active", "contact": [{"telecom": [{"value": "support@computablepublishing.com", "system": "email"}]}], "contained": [{"id": "keywords0", "content": [{"classifier": [{"text": "Androgen deprivation therapy"}]}, {"classifier": [{"text": "Docetaxel"}]}, {"classifier": [{"text": "Prostate cancer"}]}, {"classifier": [{"text": "Prostatic biopsy"}]}], "resourceType": "ArtifactAssessment", "artifactReference": {"type": "Citation", "reference": "#"}}, {"id": "contributor0", "name": [{"given": ["Prabhakar"], "family": "Rajan"}], "resourceType": "Practitioner"}, {"id": "contributor1", "name": [{"given": ["John A"], "family": "Frew"}], "resourceType": "Practitioner"}, {"id": "contributor2", "name": [{"given": ["James M"], "family": "Wilson"}], "resourceType": "Practitioner"}, {"id": "contributor3", "name": [{"given": ["Ashraf S T"], "family": "Azzabi"}], "resourceType": "Practitioner"}, {"id": "contributor4", "name": [{"given": ["Rhona M"], "family": "McMenemin"}], "resourceType": "Practitioner"}, {"id": "contributor5", "name": [{"given": ["Jacqueline"], "family": "Stockley"}], "resourceType": "Practitioner"}, {"id": "contributor6", "name": [{"given": ["Naeem A"], "family": "Soomro"}], "resourceType": "Practitioner"}, {"id": "contributor7", "name": [{"given": ["Garrett"], "family": "Durkan"}], "resourceType": "Practitioner"}, {"id": "contributor8", "name": [{"given": ["Ian D"], "family": "Pedley"}], "resourceType": "Practitioner"}, {"id": "contributor9", "name": [{"given": ["Hing Y"], "family": "Leung"}], "resourceType": "Practitioner"}, {"id": "meshHeading0", "content": [{"type": {"text": "components (if present) include qualifier codings", "coding": [{"code": "mesh-heading", "system": "http://terminology.hl7.org/CodeSystem/cited-artifact-classification-type", "display": "MeSH heading"}]}, "component": [{"type": {"text": "qualifier"}, "classifier": [{"text": "is not a major topic"}]}], "classifier": [{"coding": [{"code": "D000368", "system": "https://www.nlm.nih.gov/mesh", "display": "Aged", "userSelected": false}]}], "freeToShare": true}, {"type": {"text": "components (if present) include qualifier codings", "coding": [{"code": "mesh-heading", "system": "http://terminology.hl7.org/CodeSystem/cited-artifact-classification-type", "display": "MeSH heading"}]}, "component": [{"type": {"text": "qualifier"}, "classifier": [{"text": "is not a major topic"}]}, {"type": {"text": "qualifier"}, "component": [{"type": {"text": "is Major topic"}, "classifier": [{"coding": [{"code": "C49487", "system": "http://ncicb.nci.nih.gov/xml/owl/EVS/Thesaurus.owl", "display": "No"}]}]}], "classifier": [{"coding": [{"code": "Q000008", "system": "https://www.nlm.nih.gov/mesh", "display": "administration & dosage"}]}]}, {"type": {"text": "qualifier"}, "component": [{"type": {"text": "is Major topic"}, "classifier": [{"coding": [{"code": "C49488", "system": "http://ncicb.nci.nih.gov/xml/owl/EVS/Thesaurus.owl", "display": "Yes"}]}]}], "classifier": [{"coding": [{"code": "Q000627", "system": "https://www.nlm.nih.gov/mesh", "display": "therapeutic use"}]}]}], "classifier": [{"coding": [{"code": "D000726", "system": "https://www.nlm.nih.gov/mesh", "display": "Androgen Antagonists", "userSelected": false}]}], "freeToShare": true}, {"type": {"text": "components (if present) include qualifier codings", "coding": [{"code": "mesh-heading", "system": "http://terminology.hl7.org/CodeSystem/cited-artifact-classification-type", "display": "MeSH heading"}]}, "component": [{"type": {"text": "qualifier"}, "classifier": [{"text": "is not a major topic"}]}], "classifier": [{"coding": [{"code": "D001706", "system": "https://www.nlm.nih.gov/mesh", "display": "Biopsy", "userSelected": false}]}], "freeToShare": true}, {"type": {"text": "components (if present) include qualifier codings", "coding": [{"code": "mesh-heading", "system": "http://terminology.hl7.org/CodeSystem/cited-artifact-classification-type", "display": "MeSH heading"}]}, "component": [{"type": {"text": "qualifier"}, "classifier": [{"text": "is not a major topic"}]}], "classifier": [{"coding": [{"code": "D000077143", "system": "https://www.nlm.nih.gov/mesh", "display": "Docetaxel", "userSelected": false}]}], "freeToShare": true}, {"type": {"text": "components (if present) include qualifier codings", "coding": [{"code": "mesh-heading", "system": "http://terminology.hl7.org/CodeSystem/cited-artifact-classification-type", "display": "MeSH heading"}]}, "component": [{"type": {"text": "qualifier"}, "classifier": [{"text": "is not a major topic"}]}], "classifier": [{"coding": [{"code": "D005240", "system": "https://www.nlm.nih.gov/mesh", "display": "Feasibility Studies", "userSelected": false}]}], "freeToShare": true}, {"type": {"text": "components (if present) include qualifier codings", "coding": [{"code": "mesh-heading", "system": "http://terminology.hl7.org/CodeSystem/cited-artifact-classification-type", "display": "MeSH heading"}]}, "component": [{"type": {"text": "qualifier"}, "classifier": [{"text": "is not a major topic"}]}], "classifier": [{"coding": [{"code": "D006801", "system": "https://www.nlm.nih.gov/mesh", "display": "Humans", "userSelected": false}]}], "freeToShare": true}, {"type": {"text": "components (if present) include qualifier codings", "coding": [{"code": "mesh-heading", "system": "http://terminology.hl7.org/CodeSystem/cited-artifact-classification-type", "display": "MeSH heading"}]}, "component": [{"type": {"text": "qualifier"}, "classifier": [{"text": "is not a major topic"}]}], "classifier": [{"coding": [{"code": "D008297", "system": "https://www.nlm.nih.gov/mesh", "display": "Male", "userSelected": false}]}], "freeToShare": true}, {"type": {"text": "components (if present) include qualifier codings", "coding": [{"code": "mesh-heading", "system": "http://terminology.hl7.org/CodeSystem/cited-artifact-classification-type", "display": "MeSH heading"}]}, "component": [{"type": {"text": "qualifier"}, "classifier": [{"text": "is not a major topic"}]}], "classifier": [{"coding": [{"code": "D008875", "system": "https://www.nlm.nih.gov/mesh", "display": "Middle Aged", "userSelected": false}]}], "freeToShare": true}, {"type": {"text": "components (if present) include qualifier codings", "coding": [{"code": "mesh-heading", "system": "http://terminology.hl7.org/CodeSystem/cited-artifact-classification-type", "display": "MeSH heading"}]}, "component": [{"type": {"text": "qualifier"}, "classifier": [{"text": "is not a major topic"}]}, {"type": {"text": "qualifier"}, "component": [{"type": {"text": "is Major topic"}, "classifier": [{"coding": [{"code": "C49488", "system": "http://ncicb.nci.nih.gov/xml/owl/EVS/Thesaurus.owl", "display": "Yes"}]}]}], "classifier": [{"coding": [{"code": "Q000188", "system": "https://www.nlm.nih.gov/mesh", "display": "drug therapy"}]}]}, {"type": {"text": "qualifier"}, "component": [{"type": {"text": "is Major topic"}, "classifier": [{"coding": [{"code": "C49488", "system": "http://ncicb.nci.nih.gov/xml/owl/EVS/Thesaurus.owl", "display": "Yes"}]}]}], "classifier": [{"coding": [{"code": "Q000601", "system": "https://www.nlm.nih.gov/mesh", "display": "surgery"}]}]}], "classifier": [{"coding": [{"code": "D011471", "system": "https://www.nlm.nih.gov/mesh", "display": "Prostatic Neoplasms", "userSelected": false}]}], "freeToShare": true}, {"type": {"text": "components (if present) include qualifier codings", "coding": [{"code": "mesh-heading", "system": "http://terminology.hl7.org/CodeSystem/cited-artifact-classification-type", "display": "MeSH heading"}]}, "component": [{"type": {"text": "qualifier"}, "classifier": [{"text": "is not a major topic"}]}, {"type": {"text": "qualifier"}, "component": [{"type": {"text": "is Major topic"}, "classifier": [{"coding": [{"code": "C49487", "system": "http://ncicb.nci.nih.gov/xml/owl/EVS/Thesaurus.owl", "display": "No"}]}]}], "classifier": [{"coding": [{"code": "Q000008", "system": "https://www.nlm.nih.gov/mesh", "display": "administration & dosage"}]}]}, {"type": {"text": "qualifier"}, "component": [{"type": {"text": "is Major topic"}, "classifier": [{"coding": [{"code": "C49488", "system": "http://ncicb.nci.nih.gov/xml/owl/EVS/Thesaurus.owl", "display": "Yes"}]}]}], "classifier": [{"coding": [{"code": "Q000627", "system": "https://www.nlm.nih.gov/mesh", "display": "therapeutic use"}]}]}], "classifier": [{"coding": [{"code": "D043823", "system": "https://www.nlm.nih.gov/mesh", "display": "Taxoids", "userSelected": false}]}], "freeToShare": true}], "resourceType": "ArtifactAssessment", "artifactReference": {"type": "Citation", "reference": "#"}}], "copyright": "https://creativecommons.org/licenses/by-nc-sa/4.0/", "extension": [{"url": "http://hl7.org/fhir/uv/ebm/StructureDefinition/artifact-publication-status", "valueCodeableConcept": {"coding": [{"code": "active", "system": "http://terminology.hl7.org/CodeSystem/cited-artifact-status-type", "display": "Active"}]}}], "publisher": "Computable Publishing LLC", "identifier": [{"type": {"text": "FEvIR Object Identifier", "coding": [{"system": "http://terminology.hl7.org/CodeSystem/v2-0203", "code": "ACSN", "display": "Accession ID"}]}, "value": "179630", "system": "https://fevir.net/FOI", "assigner": {"display": "Computable Publishing LLC"}}, {"value": "26092557", "system": "https://pubmed.ncbi.nlm.nih.gov"}], "statusDate": [{"period": {"end": "2015-02-20"}, "activity": {"coding": [{"code": "pubmed-pubstatus-received", "system": "http://hl7.org/fhir/citation-status-type", "display": "PubMed Pubstatus of Received"}]}}, {"period": {"end": "2015-05-08"}, "activity": {"coding": [{"code": "pubmed-pubstatus-revised", "system": "http://hl7.org/fhir/citation-status-type", "display": "PubMed Pubstatus of Revised"}]}}, {"period": {"end": "2015-05-11"}, "activity": {"coding": [{"code": "pubmed-pubstatus-accepted", "system": "http://hl7.org/fhir/citation-status-type", "display": "PubMed Pubstatus of Accepted"}]}}, {"period": {"end": "2015-06-21T06:00:00.000Z"}, "activity": {"coding": [{"code": "pubmed-pubstatus-entrez", "system": "http://hl7.org/fhir/citation-status-type", "display": "PubMed Pubstatus of Entrez"}]}}, {"period": {"end": "2015-06-21T06:00:00.000Z"}, "activity": {"coding": [{"code": "pubmed-pubstatus-pubmed", "system": "http://hl7.org/fhir/citation-status-type", "display": "PubMed Pubstatus of Pubmed"}]}}, {"period": {"end": "2016-04-15T06:00:00.000Z"}, "activity": {"coding": [{"code": "pubmed-pubstatus-medline", "system": "http://hl7.org/fhir/citation-status-type", "display": "PubMed Pubstatus of Medline"}]}}], "useContext": [{"code": {"code": "fevir-platform-use", "system": "http://terminology.hl7.org/CodeSystem/citation-classification-type", "display": "FEvIR Platform Use"}, "valueCodeableConcept": {"coding": [{"code": "medline-base", "system": "http://terminology.hl7.org/CodeSystem/citation-artifact-classifier", "display": "Medline Base", "userSelected": false}]}}], "approvalDate": "2016-04-14", "currentState": [{"coding": [{"code": "medline-medline", "system": "http://hl7.org/fhir/citation-status-type", "display": "Medline Citation Status of Medline"}]}, {"coding": [{"code": "pubmed-publication-status-ppublish", "system": "http://hl7.org/fhir/citation-status-type", "display": "PubMed PublicationStatus of ppublish"}]}], "resourceType": "Citation", "citedArtifact": {"title": [{"text": "Feasibility study of a randomized controlled trial comparing docetaxel chemotherapy and androgen deprivation therapy with sequential prostatic biopsies from patients with advanced non-castration-resistant prostate cancer.", "type": [{"coding": [{"code": "primary", "system": "http://terminology.hl7.org/CodeSystem/title-type", "display": "Primary title"}]}], "language": {"coding": [{"system": "urn:ietf:bcp:47", "code": "en", "display": "English"}]}}], "abstract": [{"text": "**BACKGROUND AND OBJECTIVE:** Sequential tissue biopsies taken during clinical trials of novel systemic anticancer therapies for advanced prostate cancer (PCa) may aid pharmacodynamic evaluation and biomarker discovery. We conducted a single institution phase-II open-labeled randomized study to assess the safety, tolerability, and early efficacy of docetaxel chemotherapy plus androgen deprivation therapy (ADT) vs. ADT alone for patients with advanced non-castration-resistant PCa with sequential prostatic biopsies.\n**PATIENTS AND METHODS:** We randomized 30 patients with newly diagnosed high-grade locally advanced or metastatic (cT3-4/N0-1/M0-1) PCa to receive ADT with (n = 15) or without (n = 15) docetaxel. Transrectal ultrasound-guided prostatic biopsies were taken at randomization and ~22 weeks after treatment initiation. Primary end point: biochemical response rate. Secondary end points: time to progression and tumor profiling.\n**RESULTS:** Both treatments appear to be well tolerated, and there was no difference in mean nadir prostate-specific antigen and time to prostate-specific antigen relapse between treatment arms (P&gt;0.05). No adverse effects of pre- and post-treatment prostatic biopsies were observed. The study was neither designed nor sufficiently powered to demonstrate statistically significant differences in oncological outcomes or safety profiles between the 2 treatment arms.\n**CONCLUSIONS:** Despite the lack of statistical power, our study suggests that docetaxel and ADT in combination may be well tolerated with apparently similar short-term efficacy compared with ADT alone for high-grade locally advanced or metastatic non-castration-resistant PCa, Sequential prostatic biopsies may provide tissue for tumor profiling to yield mechanistic or prognostic insights relating to novel systemic anticancer therapies.", "type": {"coding": [{"code": "primary-human-use", "system": "http://terminology.hl7.org/CodeSystem/cited-artifact-abstract-type", "display": "Primary human use"}]}, "copyright": "Copyright \u00a9 2015 Elsevier Inc. All rights reserved."}], "identifier": [{"value": "26092557", "system": "https://pubmed.ncbi.nlm.nih.gov"}, {"value": "10.1016/j.urolonc.2015.05.012", "system": "https://doi.org"}, {"type": {"text": "pii", "coding": [{"system": "http://terminology.hl7.org/CodeSystem/v2-0203", "code": "ACSN", "display": "Accession ID"}]}, "value": "S1078-1439(15)00235-5"}], "webLocation": [{"url": "https://pubmed.ncbi.nlm.nih.gov/26092557/", "classifier": [{"coding": [{"code": "abstract", "system": "http://terminology.hl7.org/CodeSystem/artifact-url-classifier", "display": "Abstract"}]}]}, {"url": "https://doi.org/10.1016/j.urolonc.2015.05.012", "classifier": [{"coding": [{"code": "doi-based", "system": "http://terminology.hl7.org/CodeSystem/artifact-url-classifier", "display": "DOI Based"}]}]}], "classification": [{"type": {"coding": [{"code": "publishing-model", "system": "http://terminology.hl7.org/CodeSystem/cited-artifact-classification-type", "display": "Publishing Model", "userSelected": false}]}, "classifier": [{"coding": [{"code": "Print-Electronic", "system": "http://terminology.hl7.org/CodeSystem/citation-artifact-classifier", "display": "Print Electronic", "userSelected": false}]}]}, {"type": {"coding": [{"code": "keyword", "system": "http://terminology.hl7.org/CodeSystem/cited-artifact-classification-type", "display": "Keyword", "userSelected": false}]}, "artifactAssessment": [{"type": "ArtifactAssessment", "display": "Keywords provided by NOTNLM", "reference": "#keywords0"}]}, {"type": {"coding": [{"code": "chemical", "system": "http://terminology.hl7.org/CodeSystem/cited-artifact-classification-type", "display": "Chemical", "userSelected": false}]}, "classifier": [{"coding": [{"code": "D000726", "system": "https://www.nlm.nih.gov/mesh", "display": "Androgen Antagonists", "userSelected": false}]}, {"coding": [{"code": "D043823", "system": "https://www.nlm.nih.gov/mesh", "display": "Taxoids", "userSelected": false}]}, {"coding": [{"code": "15H5577CQD", "system": "https://www.cas.org/support/documentation/chemical-substances", "userSelected": false}, {"code": "D000077143", "system": "https://www.nlm.nih.gov/mesh", "display": "Docetaxel", "userSelected": false}]}]}, {"type": {"coding": [{"code": "mesh-heading", "system": "http://terminology.hl7.org/CodeSystem/cited-artifact-classification-type", "display": "MeSH heading"}]}, "artifactAssessment": [{"type": "ArtifactAssessment", "reference": "#meshHeading0"}]}, {"type": {"coding": [{"code": "publication-type", "system": "http://terminology.hl7.org/CodeSystem/cited-artifact-classification-type", "display": "Publication type"}]}, "classifier": [{"coding": [{"code": "D017427", "system": "https://www.nlm.nih.gov/mesh", "display": "Clinical Trial, Phase II", "userSelected": false}]}, {"coding": [{"code": "D016428", "system": "https://www.nlm.nih.gov/mesh", "display": "Journal Article", "userSelected": false}]}, {"coding": [{"code": "D016449", "system": "https://www.nlm.nih.gov/mesh", "display": "Randomized Controlled Trial", "userSelected": false}]}, {"coding": [{"code": "D013485", "system": "https://www.nlm.nih.gov/mesh", "display": "Research Support, Non-U.S. Gov't", "userSelected": false}]}]}, {"type": {"coding": [{"code": "knowledge-artifact-type", "system": "http://terminology.hl7.org/CodeSystem/cited-artifact-classification-type", "display": "Knowledge Artifact Type", "userSelected": false}]}, "classifier": [{"coding": [{"code": "D016428", "system": "http://terminology.hl7.org/CodeSystem/citation-artifact-classifier", "display": "Journal Article", "userSelected": false}]}], "artifactAssessment": [{"display": "Classifier added by Computable Publishing LLC"}]}, {"type": {"coding": [{"code": "citation-subset", "system": "http://terminology.hl7.org/CodeSystem/cited-artifact-classification-type", "display": "Citation subset", "userSelected": false}]}, "classifier": [{"coding": [{"code": "IM", "system": "https://www.nlm.nih.gov/bsd/licensee/elements_descriptions.html#citationsubset", "display": "IM", "userSelected": false}]}]}], "contributorship": {"entry": [{"affiliation": [{"display": "Institute of Cancer Sciences, University of Glasgow, UK. Electronic address: p.rajan@beatson.gla.ac.uk."}], "contributor": {"type": "Practitioner", "display": "Rajan P", "reference": "#contributor0"}, "forenameInitials": "P"}, {"affiliation": [{"display": "Northern Centre for Cancer Care, Newcastle upon Tyne Hospitals NHS Foundation Trust, Freeman Hospital, Newcastle upon Tyne, UK."}], "contributor": {"type": "Practitioner", "display": "Frew JA", "reference": "#contributor1"}, "forenameInitials": "JA"}, {"affiliation": [{"display": "Northern Centre for Cancer Care, Newcastle upon Tyne Hospitals NHS Foundation Trust, Freeman Hospital, Newcastle upon Tyne, UK."}], "contributor": {"type": "Practitioner", "display": "Wilson JM", "reference": "#contributor2"}, "forenameInitials": "JM"}, {"affiliation": [{"display": "Northern Centre for Cancer Care, Newcastle upon Tyne Hospitals NHS Foundation Trust, Freeman Hospital, Newcastle upon Tyne, UK."}], "contributor": {"type": "Practitioner", "display": "Azzabi AS", "reference": "#contributor3"}, "forenameInitials": "AS"}, {"affiliation": [{"display": "Northern Centre for Cancer Care, Newcastle upon Tyne Hospitals NHS Foundation Trust, Freeman Hospital, Newcastle upon Tyne, UK."}], "contributor": {"type": "Practitioner", "display": "McMenemin RM", "reference": "#contributor4"}, "forenameInitials": "RM"}, {"affiliation": [{"display": "Institute of Cancer Sciences, University of Glasgow, UK."}], "contributor": {"type": "Practitioner", "display": "Stockley J", "reference": "#contributor5"}, "forenameInitials": "J"}, {"affiliation": [{"display": "Newcastle Urology, Newcastle upon Tyne Hospitals NHS Foundation Trust, Freeman Hospital, Newcastle upon Tyne, UK."}], "contributor": {"type": "Practitioner", "display": "Soomro NA", "reference": "#contributor6"}, "forenameInitials": "NA"}, {"affiliation": [{"display": "Newcastle Urology, Newcastle upon Tyne Hospitals NHS Foundation Trust, Freeman Hospital, Newcastle upon Tyne, UK."}], "contributor": {"type": "Practitioner", "display": "Durkan G", "reference": "#contributor7"}, "forenameInitials": "G"}, {"affiliation": [{"display": "Northern Centre for Cancer Care, Newcastle upon Tyne Hospitals NHS Foundation Trust, Freeman Hospital, Newcastle upon Tyne, UK."}], "contributor": {"type": "Practitioner", "display": "Pedley ID", "reference": "#contributor8"}, "forenameInitials": "ID"}, {"affiliation": [{"display": "Institute of Cancer Sciences, University of Glasgow, UK; Cancer Research UK Beatson Institute, Bearsden, UK. Electronic address: h.leung@beatson.gla.ac.uk."}], "contributor": {"type": "Practitioner", "display": "Leung HY", "reference": "#contributor9"}, "forenameInitials": "HY"}], "complete": true}, "publicationForm": [{"issue": "8", "volume": "33", "pageString": "337.e1-6", "articleDate": "2015-08", "citedMedium": {"coding": [{"code": "internet", "system": "http://terminology.hl7.org/CodeSystem/cited-medium", "display": "Internet"}]}, "publishedIn": {"type": {"coding": [{"code": "D020492", "system": "http://terminology.hl7.org/CodeSystem/published-in-type", "display": "Periodical"}]}, "title": "Urologic oncology", "identifier": [{"type": {"text": "Electronic ISSN Type", "coding": [{"code": "Electronic", "system": "https://www.nlm.nih.gov/bsd/licensee/elements_descriptions.html#issn", "display": "Electronic"}]}, "value": "1873-2496", "system": "https://portal.issn.org"}, {"type": {"text": "ISOAbbreviation", "coding": [{"system": "http://terminology.hl7.org/CodeSystem/v2-0203", "code": "XX", "display": "Organization identifier"}]}, "value": "Urol Oncol", "system": "https://www.issn.org/services/online-services/access-to-the-ltwa/"}, {"type": {"text": "ISSN Linking", "coding": [{"system": "http://terminology.hl7.org/CodeSystem/v2-0203", "code": "XX", "display": "Organization identifier"}]}, "value": "1078-1439", "system": "https://www.issn.org/understanding-the-issn/assignment-rules/the-issn-l-for-publications-on-multiple-media/"}, {"type": {"text": "Medline Title Abbreviation", "coding": [{"system": "http://terminology.hl7.org/CodeSystem/v2-0203", "code": "XX", "display": "Organization identifier"}]}, "value": "Urol Oncol", "system": "https://www.nlm.nih.gov/tsd/cataloging/contructitleabbre.html"}, {"type": {"text": "NLM Unique ID", "coding": [{"system": "http://terminology.hl7.org/CodeSystem/v2-0203", "code": "XX", "display": "Organization identifier"}]}, "value": "9805460", "system": "https://locatorplus.gov/cgi-bin/Pwebrecon.cgi?DB=local"}], "publisherLocation": "United States"}}, {"articleDate": "2015-06-16", "citedMedium": {"coding": [{"code": "internet-without-issue", "system": "http://terminology.hl7.org/CodeSystem/cited-medium", "display": "Internet without issue"}]}}]}, "classification": [{"type": {"coding": [{"code": "citation-source", "system": "http://terminology.hl7.org/CodeSystem/citation-classification-type", "display": "Citation Source"}]}, "classifier": [{"text": "MEDLINE"}]}, {"type": {"coding": [{"code": "medline-owner", "system": "http://terminology.hl7.org/CodeSystem/citation-classification-type", "display": "MEDLINE Citation Owner"}]}, "classifier": [{"coding": [{"code": "NLM", "system": "https://www.nlm.nih.gov/bsd/licensee/elements_descriptions.html#owner_value", "display": "National Library of Medicine, Index Section", "userSelected": false}]}]}], "lastReviewDate": "2024-02-10", "description": "This Citation Resource is referenced in an example for the EBMonFHIR Implementation Guide."}