{"resourceType": "Citation", "title": "BookPartCitation: Chapter 3 of Crossing the Quality Chasm: A New Health System for the 21st Century - without baseCitation", "status": "active", "useContext": [{"code": {"system": "http://terminology.hl7.org/CodeSystem/citation-classification-type", "code": "fevir-platform-use", "display": "FEvIR Platform Use"}, "valueCodeableConcept": {"coding": [{"system": "http://terminology.hl7.org/CodeSystem/citation-artifact-classifier", "code": "project-specific", "display": "Project Specific"}]}}], "description": "An example to map the BookCitation Profile", "meta": {"versionId": "23", "lastUpdated": "2025-10-11T21:20:49.915Z", "profile": ["http://hl7.org/fhir/uv/ebm/StructureDefinition/book-part-citation"]}, "url": "https://fevir.net/resources/Citation/139860", "id": "139860", "publisher": "Computable Publishing LLC", "copyright": "https://creativecommons.org/licenses/by-nc-sa/4.0/", "contact": [{"telecom": [{"system": "email", "value": "support@computablepublishing.com"}]}], "summary": [{"style": {"coding": [{"system": "http://hl7.org/fhir/citation-summary-style", "code": "comppub", "display": "Computable Publishing"}]}, "text": "Formulating New Rules to Redesign and Improve Care [Book Part], chapters 3. Contributors:  Institute of Medicine (US) Committee on Quality of Health Care in America [Author];  Institute of Medicine (US) Committee on Quality of Health Care in America [Book editor]. In: Crossing the Quality Chasm: A New Health System for the 21st Century, Bookshelf ID NBK222277. Published 2001. Available at: https://www.ncbi.nlm.nih.gov/books/NBK222277/."}], "citedArtifact": {"identifier": [{"type": {"text": "Bookshelf ID", "coding": [{"system": "http://terminology.hl7.org/CodeSystem/v2-0203", "code": "ACSN", "display": "Accession ID"}]}, "assigner": {"display": "NLM"}, "value": "NBK222277"}], "publicationForm": [{"publishedIn": {"identifier": [{"assigner": {"display": "NLM"}, "system": "https://pubmed.ncbi.nlm.nih.gov", "value": "25057539"}, {"type": {"text": "Bookshelf ID", "coding": [{"system": "http://terminology.hl7.org/CodeSystem/v2-0203", "code": "ACSN", "display": "Accession ID"}]}, "assigner": {"display": "NLM"}, "value": "NBK222274"}, {"system": "https://doi.org", "value": "10.17226/10027"}, {"assigner": {"display": "National Academies Press (US)"}, "value": "nap10027"}, {"type": {"text": "ISBN", "coding": [{"system": "https://fevir.net/resources/CodeSystem/179423", "code": "object-identifier", "display": "Object Identifier"}]}, "value": "0309072808"}], "title": "Crossing the Quality Chasm: A New Health System for the 21st Century", "publisher": {"display": "National Academies Press (US)"}, "publisherLocation": "Washington (DC)", "type": {"coding": [{"system": "http://terminology.hl7.org/CodeSystem/published-in-type", "code": "D001877", "display": "Book"}]}}, "articleDate": "2001", "language": [{"coding": [{"system": "urn:ietf:bcp:47", "code": "en", "display": "English"}]}], "copyright": "Copyright 2001 by the National Academy of Sciences. All rights reserved.", "publicationDateText": "2001"}], "title": [{"type": [{"coding": [{"system": "http://terminology.hl7.org/CodeSystem/title-type", "code": "primary", "display": "Primary title"}], "text": "Chapter title"}], "language": {"coding": [{"system": "urn:ietf:bcp:47", "code": "en-US", "display": "English (United States)"}]}, "text": "Formulating New Rules to Redesign and Improve Care"}], "classification": [{"type": {"coding": [{"system": "http://terminology.hl7.org/CodeSystem/cited-artifact-classification-type", "code": "knowledge-artifact-type", "display": "Knowledge Artifact Type"}]}, "classifier": [{"coding": [{"system": "https://fevir.net/resources/CodeSystem/179423", "code": "classified-as-book-part", "display": "Book Part"}], "text": "Book Part"}]}], "contributorship": {"complete": true, "entry": [{"contributor": {"reference": "#contributor0", "type": "Organization"}, "role": {"coding": [{"system": "http://hl7.org/fhir/contributor-role", "code": "author", "display": "Author/Creator"}]}}, {"contributor": {"reference": "#contributor1", "type": "Organization"}, "role": {"coding": [{"system": "http://hl7.org/fhir/contributor-role", "code": "editor", "display": "Editor"}], "text": "Book Editor"}}]}, "webLocation": [{"classifier": [{"coding": [{"system": "http://terminology.hl7.org/CodeSystem/artifact-url-classifier", "code": "full-text", "display": "Full-Text"}]}], "url": "https://www.ncbi.nlm.nih.gov/books/NBK222277/"}, {"classifier": [{"coding": [{"system": "http://hl7.org/fhir/citation-artifact-classifier", "code": "D001877", "display": "Book"}], "text": "Book"}], "url": "https://doi.org/10.17226/10027"}], "part": {"value": "3", "type": {"coding": [{"system": "https://fevir.net/resources/CodeSystem/179423", "code": "chapters", "display": "chapters"}], "text": "chapters"}}}, "contained": [{"resourceType": "Organization", "id": "contributor0", "name": "Institute of Medicine (US) Committee on Quality of Health Care in America"}, {"resourceType": "Organization", "id": "contributor1", "name": "Institute of Medicine (US) Committee on Quality of Health Care in America"}], "currentState": [{"coding": [{"system": "http://hl7.org/fhir/citation-status-type", "code": "pubmed-pubstatus-ppublish", "display": "PubMed Pubstatus of Ppublish"}]}], "identifier": [{"type": {"text": "FEvIR Object Identifier", "coding": [{"system": "http://terminology.hl7.org/CodeSystem/v2-0203", "code": "ACSN", "display": "Accession ID"}]}, "system": "https://fevir.net/FOI", "value": "139860", "assigner": {"display": "Computable Publishing LLC"}}, {"assigner": {"display": "NLM"}, "system": "https://pubmed.ncbi.nlm.nih.gov", "value": "25057539"}], "author": [{"name": "Brian S. Alper"}], "extension": [{"url": "http://hl7.org/fhir/uv/ebm/StructureDefinition/artifact-publication-status", "valueCodeableConcept": {"coding": [{"system": "http://terminology.hl7.org/CodeSystem/cited-artifact-status-type", "code": "active", "display": "Active"}]}}], "relatesTo": [{"type": "derived-from", "targetUri": "https://eutils.ncbi.nlm.nih.gov/entrez/eutils/efetch.fcgi?db=pubmed&id=25057539&retmode=xml"}]}