{"resourceType": "Citation", "meta": {"profile": ["http://hl7.org/fhir/uv/ebm/StructureDefinition/journal-article-citation"], "versionId": "10", "lastUpdated": "2025-03-27T12:31:58.269Z"}, "contained": [{"resourceType": "Practitioner", "id": "contributor0", "name": [{"family": "Carter", "given": ["Lynda"]}]}, {"resourceType": "Practitioner", "id": "contributor1", "name": [{"family": "Fishman", "given": ["Elliot K"]}]}, {"resourceType": "Practitioner", "id": "contributor2", "name": [{"family": "Rowe", "given": ["Steven P"]}]}, {"resourceType": "Practitioner", "id": "contributor3", "name": [{"family": "Chu", "given": ["Linda C"]}]}, {"resourceType": "ArtifactAssessment", "id": "meshHeading0", "artifactReference": {"reference": "#", "type": "Citation"}, "content": [{"type": {"coding": [{"system": "http://hl7.org/fhir/cited-artifact-classification-type", "code": "mesh-heading", "display": "MeSH heading"}], "text": "components (if present) include qualifier codings"}, "classifier": [{"coding": [{"system": "https://www.nlm.nih.gov/mesh", "code": "D005260", "display": "Female", "userSelected": false}]}], "freeToShare": true, "component": [{"type": {"text": "qualifier"}, "classifier": [{"text": "is not a major topic"}]}]}, {"type": {"coding": [{"system": "http://hl7.org/fhir/cited-artifact-classification-type", "code": "mesh-heading", "display": "MeSH heading"}], "text": "components (if present) include qualifier codings"}, "classifier": [{"coding": [{"system": "https://www.nlm.nih.gov/mesh", "code": "D006801", "display": "Humans", "userSelected": false}]}], "freeToShare": true, "component": [{"type": {"text": "qualifier"}, "classifier": [{"text": "is not a major topic"}]}]}, {"type": {"coding": [{"system": "http://hl7.org/fhir/cited-artifact-classification-type", "code": "mesh-heading", "display": "MeSH heading"}], "text": "components (if present) include qualifier codings"}, "classifier": [{"coding": [{"system": "https://www.nlm.nih.gov/mesh", "code": "D000072177", "display": "Radiologists", "userSelected": false}]}], "freeToShare": true, "component": [{"type": {"text": "qualifier"}, "classifier": [{"text": "is Major topic"}]}]}]}], "useContext": [{"code": {"system": "http://hl7.org/fhir/citation-classification-type", "code": "fevir-platform-use", "display": "FEvIR Platform Use"}, "valueCodeableConcept": {"coding": [{"system": "http://hl7.org/fhir/citation-artifact-classifier", "code": "medline-base", "display": "Medline Base", "userSelected": false}]}}], "classification": [{"type": {"coding": [{"system": "http://hl7.org/fhir/citation-classification-type", "code": "citation-source", "display": "Citation Source"}]}, "classifier": [{"text": "MEDLINE"}]}, {"type": {"coding": [{"system": "http://hl7.org/fhir/citation-classification-type", "code": "medline-owner", "display": "MEDLINE Citation Owner"}]}, "classifier": [{"coding": [{"system": "https://www.nlm.nih.gov/bsd/licensee/elements_descriptions.html#owner_value", "code": "NLM", "display": "National Library of Medicine, Index Section", "userSelected": false}]}]}], "statusDate": [{"activity": {"coding": [{"system": "http://hl7.org/fhir/citation-status-type", "code": "pubmed-pubstatus-received", "display": "PubMed Pubstatus of Received"}]}, "period": {"end": "2021-10-11"}}, {"activity": {"coding": [{"system": "http://hl7.org/fhir/citation-status-type", "code": "pubmed-pubstatus-accepted", "display": "PubMed Pubstatus of Accepted"}]}, "period": {"end": "2021-10-29"}}, {"activity": {"coding": [{"system": "http://hl7.org/fhir/citation-status-type", "code": "pubmed-pubstatus-pubmed", "display": "PubMed Pubstatus of Pubmed"}]}, "period": {"end": "2021-12-07T06:00:00.000Z"}}, {"activity": {"coding": [{"system": "http://hl7.org/fhir/citation-status-type", "code": "pubmed-pubstatus-medline", "display": "PubMed Pubstatus of Medline"}]}, "period": {"end": "2022-03-04T06:00:00.000Z"}}, {"activity": {"coding": [{"system": "http://hl7.org/fhir/citation-status-type", "code": "pubmed-pubstatus-entrez", "display": "PubMed Pubstatus of Entrez"}]}, "period": {"end": "2021-12-06T20:11:00.000Z"}}], "citedArtifact": {"identifier": [{"system": "https://pubmed.ncbi.nlm.nih.gov", "value": "34871555"}, {"system": "https://doi.org", "value": "10.1016/j.jacr.2021.10.014"}, {"type": {"text": "pii", "coding": [{"system": "http://terminology.hl7.org/CodeSystem/v2-0203", "code": "ACSN", "display": "Accession ID"}]}, "value": "S1546-1440(21)00932-7"}], "title": [{"text": "What Can Wonder Woman Teach Radiologists?", "language": {"coding": [{"system": "urn:ietf:bcp:47", "code": "en", "display": "English"}]}, "type": [{"coding": [{"system": "http://hl7.org/fhir/title-type", "code": "primary", "display": "Primary title"}]}]}], "publicationForm": [{"publishedIn": {"type": {"coding": [{"system": "http://hl7.org/fhir/published-in-type", "code": "D020492", "display": "Periodical"}]}, "identifier": [{"type": {"coding": [{"system": "https://www.nlm.nih.gov/bsd/licensee/elements_descriptions.html#issn", "code": "Electronic", "display": "Electronic"}], "text": "Electronic ISSN Type"}, "value": "1558-349X", "system": "https://portal.issn.org"}, {"type": {"text": "ISOAbbreviation", "coding": [{"system": "http://terminology.hl7.org/CodeSystem/v2-0203", "code": "XX", "display": "Organization identifier"}]}, "system": "https://www.issn.org/services/online-services/access-to-the-ltwa/", "value": "J Am Coll Radiol"}, {"type": {"text": "ISSN Linking", "coding": [{"system": "http://terminology.hl7.org/CodeSystem/v2-0203", "code": "XX", "display": "Organization identifier"}]}, "system": "https://www.issn.org/understanding-the-issn/assignment-rules/the-issn-l-for-publications-on-multiple-media/", "value": "1546-1440"}, {"type": {"text": "Medline Title Abbreviation", "coding": [{"system": "http://terminology.hl7.org/CodeSystem/v2-0203", "code": "XX", "display": "Organization identifier"}]}, "system": "https://www.nlm.nih.gov/tsd/cataloging/contructitleabbre.html", "value": "J Am Coll Radiol"}, {"type": {"text": "NLM Unique ID", "coding": [{"system": "http://terminology.hl7.org/CodeSystem/v2-0203", "code": "XX", "display": "Organization identifier"}]}, "system": "https://locatorplus.gov/cgi-bin/Pwebrecon.cgi?DB=local", "value": "101190326"}], "title": "Journal of the American College of Radiology : JACR", "publisherLocation": "United States"}, "citedMedium": {"coding": [{"system": "http://hl7.org/fhir/cited-medium", "code": "internet", "display": "Internet"}]}, "volume": "19", "issue": "2 Pt A", "articleDate": "2022-02", "pageString": "314-315", "publicationDateText": "2022-Feb"}, {"citedMedium": {"coding": [{"system": "http://hl7.org/fhir/cited-medium", "code": "internet-without-issue", "display": "Internet without issue"}]}, "articleDate": "2021-12-03"}], "webLocation": [{"classifier": [{"coding": [{"system": "http://hl7.org/fhir/artifact-url-classifier", "code": "abstract", "display": "Abstract"}]}], "url": "https://pubmed.ncbi.nlm.nih.gov/34871555/"}, {"url": "https://doi.org/10.1016/j.jacr.2021.10.014", "classifier": [{"coding": [{"system": "http://hl7.org/fhir/artifact-url-classifier", "code": "doi-based", "display": "DOI Based"}]}]}], "classification": [{"type": {"coding": [{"system": "http://hl7.org/fhir/cited-artifact-classification-type", "code": "publishing-model", "display": "Publishing Model", "userSelected": false}]}, "classifier": [{"coding": [{"system": "http://hl7.org/fhir/citation-artifact-classifier", "code": "Print-Electronic", "display": "Print Electronic", "userSelected": false}]}]}, {"type": {"coding": [{"system": "http://hl7.org/fhir/cited-artifact-classification-type", "code": "mesh-heading", "display": "MeSH heading"}]}, "artifactAssessment": [{"reference": "#meshHeading0", "type": "ArtifactAssessment"}]}, {"type": {"coding": [{"system": "http://hl7.org/fhir/cited-artifact-classification-type", "code": "publication-type", "display": "Publication type"}]}, "classifier": [{"coding": [{"system": "https://www.nlm.nih.gov/mesh", "code": "D016428", "display": "Journal Article", "userSelected": false}]}]}, {"type": {"coding": [{"system": "http://hl7.org/fhir/cited-artifact-classification-type", "code": "knowledge-artifact-type", "display": "Knowledge Artifact Type", "userSelected": false}]}, "classifier": [{"coding": [{"system": "http://hl7.org/fhir/citation-artifact-classifier", "code": "D016428", "display": "Journal Article", "userSelected": false}]}], "artifactAssessment": [{"display": "Classifier added by Computable Publishing LLC"}]}, {"type": {"coding": [{"system": "http://hl7.org/fhir/cited-artifact-classification-type", "code": "citation-subset", "display": "Citation subset", "userSelected": false}]}, "classifier": [{"coding": [{"system": "https://www.nlm.nih.gov/bsd/licensee/elements_descriptions.html#citationsubset", "code": "IM", "display": "IM", "userSelected": false}]}]}], "contributorship": {"entry": [{"contributor": {"reference": "#contributor0", "type": "Practitioner", "display": "Carter L"}, "forenameInitials": "L", "affiliation": [{"display": "self-employed."}]}, {"contributor": {"reference": "#contributor1", "type": "Practitioner", "display": "Fishman EK"}, "forenameInitials": "EK", "affiliation": [{"display": "Russell H. Morgan Department of Radiology and Radiological Science, Johns Hopkins University School of Medicine, Baltimore, Maryland; Director, Diagnostic Division, Department of Radiology, Johns Hopkins University School of Medicine, Baltimore, Maryland."}]}, {"contributor": {"reference": "#contributor2", "type": "Practitioner", "display": "Rowe SP"}, "forenameInitials": "SP", "affiliation": [{"display": "Russell H. Morgan Department of Radiology and Radiological Science, Johns Hopkins University School of Medicine, Baltimore, Maryland."}]}, {"contributor": {"reference": "#contributor3", "type": "Practitioner", "display": "Chu LC"}, "forenameInitials": "LC", "affiliation": [{"display": "Russell H. Morgan Department of Radiology and Radiological Science, Johns Hopkins University School of Medicine, Baltimore, Maryland; Associate Director, Diagnostic Division, Department of Radiology, Johns Hopkins University School of Medicine, Baltimore, Maryland. Electronic address: lindachu@jhmi.edu."}]}], "complete": true}}, "approvalDate": "2022-03-03", "lastReviewDate": "2022-03-03", "currentState": [{"coding": [{"system": "http://hl7.org/fhir/citation-status-type", "code": "medline-medline", "display": "Medline Citation Status of Medline"}]}, {"coding": [{"system": "http://hl7.org/fhir/citation-status-type", "code": "pubmed-publication-status-ppublish", "display": "PubMed PublicationStatus of ppublish"}]}], "title": "34871555 What Can Wonder Woman Teach Radiologists?", "identifier": [{"type": {"text": "FEvIR Object Identifier", "coding": [{"system": "http://terminology.hl7.org/CodeSystem/v2-0203", "code": "ACSN", "display": "Accession ID"}]}, "system": "urn:ietf:rfc:3986", "value": "https://fevir.net/FOI/179594", "assigner": {"display": "Computable Publishing LLC"}}, {"system": "https://pubmed.ncbi.nlm.nih.gov", "value": "34871555"}], "status": "active", "url": "https://fevir.net/resources/Citation/179594", "id": "179594", "publisher": "Computable Publishing LLC", "copyright": "https://creativecommons.org/licenses/by-nc-sa/4.0/", "contact": [{"telecom": [{"system": "email", "value": "support@computablepublishing.com"}]}], "author": [{"name": "Computable Publishing\u00ae: MEDLINE-to-FEvIR Converter"}], "description": "This Citation Resource is referenced in an example for the EBMonFHIR Implementation Guide."}