{"id": "179561", "url": "https://fevir.net/resources/Citation/179561", "meta": {"profile": ["http://hl7.org/fhir/uv/ebm/StructureDefinition/web-page-citation"], "versionId": "6", "lastUpdated": "2025-10-12T18:47:15.699Z"}, "title": "WebPageCitation: A HEvKA Update Summary", "author": [{"name": "Brian S. Alper"}], "status": "active", "contact": [{"telecom": [{"value": "support@computablepublishing.com", "system": "email"}]}], "summary": [{"text": "A HEvKA Update Summary [Webpage]. Contributors:  Joanne Dehnbostel,  Brian S. Alper,  Khalid Shahin [Authors]. In: Confluence Pages of Health Level 7 (HL7) International, URL https://confluence.hl7.org/display/CDS/A+HEvKA+Update+Summary. Accessed November 25, 2023. Available at: https://confluence.hl7.org/display/CDS/A+HEvKA+Update+Summary.", "style": {"coding": [{"code": "comppub", "system": "http://hl7.org/fhir/citation-summary-style", "display": "Computable Publishing"}]}}], "contained": [{"id": "contributor0", "name": [{"given": ["Joanne"], "family": "Dehnbostel"}], "telecom": [{"value": "jdehnbostel@computablepublishing.com", "system": "email"}], "resourceType": "Practitioner"}, {"id": "contributor1", "name": [{"given": ["Brian S."], "family": "Alper"}], "resourceType": "Practitioner"}, {"id": "contributor2", "name": [{"given": ["Khalid"], "family": "Shahin"}], "resourceType": "Practitioner"}], "copyright": "https://creativecommons.org/licenses/by-nc-sa/4.0/", "extension": [{"url": "http://hl7.org/fhir/uv/ebm/StructureDefinition/artifact-publication-status", "valueCodeableConcept": {"coding": [{"code": "active", "system": "http://terminology.hl7.org/CodeSystem/cited-artifact-status-type", "display": "Active"}]}}], "publisher": "Computable Publishing LLC", "identifier": [{"type": {"text": "FEvIR Object Identifier", "coding": [{"system": "http://terminology.hl7.org/CodeSystem/v2-0203", "code": "ACSN", "display": "Accession ID"}]}, "value": "179561", "system": "https://fevir.net/FOI", "assigner": {"display": "Computable Publishing LLC"}}], "resourceType": "Citation", "citedArtifact": {"title": [{"text": "A HEvKA Update Summary", "type": [{"coding": [{"code": "primary", "system": "http://terminology.hl7.org/CodeSystem/title-type", "display": "Primary title"}]}], "language": {"coding": [{"system": "urn:ietf:bcp:47", "code": "en", "display": "English"}]}}], "identifier": [{"type": {"text": "URL", "coding": [{"system": "http://terminology.hl7.org/CodeSystem/v2-0203", "code": "FILL", "display": "Filler Identifier"}]}, "value": "https://confluence.hl7.org/display/CDS/A+HEvKA+Update+Summary"}], "webLocation": [{"url": "https://confluence.hl7.org/display/CDS/A+HEvKA+Update+Summary", "classifier": [{"coding": [{"code": "webpage", "system": "http://terminology.hl7.org/CodeSystem/artifact-url-classifier", "display": "Webpage"}]}]}], "dateAccessed": "2023-11-25", "classification": [{"type": {"coding": [{"code": "knowledge-artifact-type", "system": "http://terminology.hl7.org/CodeSystem/cited-artifact-classification-type", "display": "Knowledge Artifact Type"}]}, "classifier": [{"coding": [{"code": "webpage", "system": "http://terminology.hl7.org/CodeSystem/citation-artifact-classifier", "display": "Webpage"}]}]}], "contributorship": {"entry": [{"role": {"coding": [{"code": "author", "system": "http://hl7.org/fhir/contributor-role", "display": "Author/Creator"}]}, "affiliation": [{"display": "Computable Publishing LLC"}, {"display": "Scientific Knowledge Accelerator Foundation"}], "contributor": {"type": "Practitioner", "reference": "#contributor0"}, "correspondingContact": true}, {"role": {"coding": [{"code": "author", "system": "http://hl7.org/fhir/contributor-role", "display": "Author/Creator"}]}, "affiliation": [{"display": "Computable Publishing LLC"}, {"display": "Scientific Knowledge Accelerator Foundation"}], "contributor": {"type": "Practitioner", "reference": "#contributor1"}}, {"role": {"coding": [{"code": "author", "system": "http://hl7.org/fhir/contributor-role", "display": "Author/Creator"}]}, "affiliation": [{"display": "Computable Publishing LLC"}, {"display": "Scientific Knowledge Accelerator Foundation"}], "contributor": {"type": "Practitioner", "reference": "#contributor2"}}], "complete": true}, "publicationForm": [{"citedMedium": {"coding": [{"code": "internet", "system": "http://terminology.hl7.org/CodeSystem/cited-medium", "display": "Internet"}]}, "publishedIn": {"type": {"text": "Website", "coding": [{"code": "D019991", "system": "http://terminology.hl7.org/CodeSystem/published-in-type", "display": "Database"}]}, "title": "Confluence Pages of Health Level 7 (HL7) International", "identifier": [{"type": {"text": "URL", "coding": [{"system": "http://terminology.hl7.org/CodeSystem/v2-0203", "code": "FILL", "display": "Filler Identifier"}]}, "value": "https://confluence.hl7.org/"}]}}]}, "description": "This Citation Resource is referenced in an example for the EBMonFHIR Implementation Guide."}