{"id": "179559", "url": "https://fevir.net/resources/Citation/179559", "meta": {"profile": ["http://hl7.org/fhir/uv/ebm/StructureDefinition/dataset-citation"], "versionId": "9", "lastUpdated": "2025-10-12T18:47:15.699Z"}, "title": "DatasetCitation: Extrachromosomal DNA Amplification Contributes to Small Cell Lung Cancer Heterogeneity and is Associated with Worse Outcomes", "author": [{"name": "Brian S. Alper"}], "status": "active", "contact": [{"telecom": [{"value": "support@computablepublishing.com", "system": "email"}]}], "summary": [{"text": "Extrachromosomal DNA Amplification Contributes to Small Cell Lung Cancer Heterogeneity and is Associated with Worse Outcomes [Dataset]. Contributors:  Anish Thomas,  Lorinc S. Pongor,  Rajesh Kumar,  Parth Desai [Authors]. In: database of Genotypes and Phenotypes, Accession Number phs003190.v1.p1. Published October 16, 2023. Available at: https://www.ncbi.nlm.nih.gov/projects/gap/cgi-bin/study.cgi?study_id=phs003190.v1.p1.", "style": {"coding": [{"code": "comppub", "system": "http://hl7.org/fhir/citation-summary-style", "display": "Computable Publishing"}]}}], "contained": [{"id": "contributor0", "name": [{"given": ["Anish"], "family": "Thomas"}], "resourceType": "Practitioner"}, {"id": "contributor1", "name": [{"given": ["Lorinc S."], "family": "Pongor"}], "resourceType": "Practitioner"}, {"id": "contributor2", "name": [{"given": ["Rajesh"], "family": "Kumar"}], "resourceType": "Practitioner"}, {"id": "contributor3", "name": [{"given": ["Parth"], "family": "Desai"}], "resourceType": "Practitioner"}], "copyright": "https://creativecommons.org/licenses/by-nc-sa/4.0/", "extension": [{"url": "http://hl7.org/fhir/uv/ebm/StructureDefinition/artifact-publication-status", "valueCodeableConcept": {"coding": [{"code": "active", "system": "http://terminology.hl7.org/CodeSystem/cited-artifact-status-type", "display": "Active"}]}}], "publisher": "Computable Publishing LLC", "identifier": [{"type": {"text": "FEvIR Object Identifier", "coding": [{"system": "http://terminology.hl7.org/CodeSystem/v2-0203", "code": "ACSN", "display": "Accession ID"}]}, "value": "179559", "system": "https://fevir.net/FOI", "assigner": {"display": "Computable Publishing LLC"}}], "resourceType": "Citation", "citedArtifact": {"title": [{"text": "Extrachromosomal DNA Amplification Contributes to Small Cell Lung Cancer Heterogeneity and is Associated with Worse Outcomes", "type": [{"coding": [{"code": "primary", "system": "http://terminology.hl7.org/CodeSystem/title-type", "display": "Primary title"}]}], "language": {"coding": [{"system": "urn:ietf:bcp:47", "code": "en", "display": "English"}]}}], "abstract": [{"text": "Small-cell lung cancer (SCLC) is a very aggressive neuroendocrine lung cancer often associated with oncogenic MYC amplifications, which are known to drive SCLC heterogeneity marked by neuroendocrine (NE) and non-neuroendocrine (non-NE) cell states. The genetic mechanisms of MYC amplification and phenotypic plasticity between cell states is not known. Using data from cell-lines and a few patient-derived samples along with integrated whole-genome sequencing, long-range optical mapping, single-cell DNA sequencing, and fluorescence in situ hybridization, we have attempted to successfully characterize extrachromosomal DNA (ecDNA) as the primary source of MYC amplifications and driver fusions in SCLC.\n\nStudy Design:\nCross-Sectional\nStudy Type:\nObservational\nTotal number of consented subjects: 5", "type": {"text": "Study Description", "coding": [{"code": "description", "system": "https://fevir.net/resources/CodeSystem/179423", "display": "Description"}]}, "language": {"coding": [{"system": "urn:ietf:bcp:47", "code": "en", "display": "English"}]}}], "identifier": [{"type": {"text": "dbGaP Study Accession", "coding": [{"code": "ACSN", "system": "http://terminology.hl7.org/CodeSystem/v2-0203", "display": "Accession ID"}]}, "value": "phs003190.v1.p1"}], "webLocation": [{"url": "https://www.ncbi.nlm.nih.gov/projects/gap/cgi-bin/study.cgi?study_id=phs003190.v1.p1", "classifier": [{"coding": [{"code": "webpage", "system": "http://terminology.hl7.org/CodeSystem/artifact-url-classifier", "display": "Webpage"}]}]}, {"url": "https://ftp.ncbi.nlm.nih.gov/dbgap/studies/phs003190/phs003190.v1.p1", "classifier": [{"text": "public download site", "coding": [{"code": "defined-in-text", "system": "https://fevir.net/resources/CodeSystem/179423", "display": "Defined in text"}]}]}], "classification": [{"type": {"coding": [{"code": "knowledge-artifact-type", "system": "http://terminology.hl7.org/CodeSystem/cited-artifact-classification-type", "display": "Knowledge Artifact Type"}]}, "classifier": [{"coding": [{"code": "D064886", "system": "http://terminology.hl7.org/CodeSystem/citation-artifact-classifier", "display": "Dataset"}]}]}, {"type": {"text": "Study Design", "coding": [{"code": "study-design", "system": "https://fevir.net/resources/CodeSystem/179423", "display": "Study Design"}]}, "classifier": [{"text": "Cross-Sectional", "coding": [{"code": "SEVCO:01027", "system": "https://fevir.net/sevco", "display": "Cross sectional data collection"}]}, {"text": "Observational Research", "coding": [{"code": "SEVCO:01002", "system": "https://fevir.net/sevco", "display": "observational research"}]}]}, {"type": {"text": "Primary Phenotype", "coding": [{"code": "defined-in-text", "system": "https://fevir.net/resources/CodeSystem/179423", "display": "Defined in text"}]}, "classifier": [{"text": "Small Cell Lung Carcinoma", "coding": [{"code": "defined-in-text", "system": "https://fevir.net/resources/CodeSystem/179423", "display": "Defined in text"}]}]}], "contributorship": {"entry": [{"role": {"coding": [{"code": "author", "system": "http://hl7.org/fhir/contributor-role", "display": "Author/Creator"}]}, "affiliation": [{"display": "Developmental Therapeutics Branch, Center for Cancer Research, National Cancer Institute, Bethesda, MD, USA"}], "contributor": {"type": "Practitioner", "reference": "#contributor0"}, "contributionType": [{"text": "Principal Investigator", "coding": [{"code": "principal-investigator", "system": "https://fevir.net/resources/CodeSystem/179423", "display": "Principal Investigator"}]}]}, {"role": {"coding": [{"code": "author", "system": "http://hl7.org/fhir/contributor-role", "display": "Author/Creator"}]}, "affiliation": [{"display": "Developmental Therapeutics Branch, Center for Cancer Research, National Cancer Institute, Bethesda, MD, USA"}], "contributor": {"type": "Practitioner", "reference": "#contributor1"}, "contributionType": [{"text": "Co-Investigator", "coding": [{"code": "co-investigator", "system": "https://fevir.net/resources/CodeSystem/179423", "display": "Co-Investigator"}]}]}, {"role": {"coding": [{"code": "author", "system": "http://hl7.org/fhir/contributor-role", "display": "Author/Creator"}]}, "affiliation": [{"display": "Developmental Therapeutics Branch, Center for Cancer Research, National Cancer Institute, Bethesda, MD, USA"}], "contributor": {"type": "Practitioner", "reference": "#contributor2"}, "contributionType": [{"text": "Co-Investigator", "coding": [{"code": "co-investigator", "system": "https://fevir.net/resources/CodeSystem/179423", "display": "Co-Investigator"}]}]}, {"role": {"coding": [{"code": "author", "system": "http://hl7.org/fhir/contributor-role", "display": "Author/Creator"}]}, "affiliation": [{"display": "Developmental Therapeutics Branch, Center for Cancer Research, National Cancer Institute, Bethesda, MD, USA"}], "contributor": {"type": "Practitioner", "reference": "#contributor3"}, "contributionType": [{"text": "Co-Investigator", "coding": [{"code": "co-investigator", "system": "https://fevir.net/resources/CodeSystem/179423", "display": "Co-Investigator"}]}]}], "complete": true}, "publicationForm": [{"copyright": "Data access provided by: dbGaP Authorized Access. For publicly available data (public ftp), Connect to the public download site. The site contains release notes and manifests. The site also contains data dictionaries, variable summaries, documents, and truncated analyses, whenever available.", "pageCount": "Total number of consented subjects: 5", "articleDate": "2023-10-16", "citedMedium": {"coding": [{"code": "internet", "system": "http://terminology.hl7.org/CodeSystem/cited-medium", "display": "Internet"}]}, "publishedIn": {"type": {"coding": [{"code": "D019991", "system": "http://terminology.hl7.org/CodeSystem/published-in-type", "display": "Database"}]}, "title": "database of Genotypes and Phenotypes", "publisher": {"display": "NLM"}, "identifier": [{"type": {"text": "Abbreviation", "coding": [{"system": "http://terminology.hl7.org/CodeSystem/v2-0203", "code": "XX", "display": "Organization identifier"}]}, "value": "dbGaP"}], "publisherLocation": "Bethesda, MD, USA"}, "accessionNumber": "phs003190.v1.p1"}]}, "description": "This Citation Resource is referenced in an example for the EBMonFHIR Implementation Guide."}