{"resourceType": "Citation", "title": "DatabaseCitation: Citation for FEvIR Platform", "useContext": [{"code": {"system": "http://hl7.org/fhir/citation-classification-type", "code": "fevir-platform-use", "display": "FEvIR Platform Use"}, "valueCodeableConcept": {"coding": [{"system": "http://hl7.org/fhir/citation-artifact-classifier", "code": "project-specific", "display": "Project Specific"}]}}], "citedArtifact": {"publicationForm": [{"publishedIn": {"publisher": {"display": "Computable Publishing LLC"}, "publisherLocation": "Franklin, NC, USA"}, "articleDate": "2021-02-15", "lastRevisionDate": "2025-07-22", "copyright": "\u00a9 2021-2025 Computable Publishing LLC, Patent Pending.", "citedMedium": {"coding": [{"system": "http://hl7.org/fhir/cited-medium", "code": "internet", "display": "Internet"}]}}], "webLocation": [{"url": "https://fevir.net/", "classifier": [{"coding": [{"system": "http://hl7.org/fhir/artifact-url-classifier", "code": "webpage", "display": "Webpage"}]}, {"text": "Website"}]}, {"url": "https://fevir.net/resources/Project/29394", "classifier": [{"text": "{\"system\":\"https://fevir.net/resources/CodeSystem/179423\",\"code\":\"defined-in-text\",\"display\":\"Defined in text\"}"}, {"text": "Release Notes"}]}], "classification": [{"type": {"coding": [{"system": "http://hl7.org/fhir/cited-artifact-classification-type", "code": "knowledge-artifact-type", "display": "Knowledge Artifact Type"}]}, "classifier": [{"coding": [{"system": "http://hl7.org/fhir/citation-artifact-classifier", "code": "D019991", "display": "Database"}]}]}], "title": [{"type": [{"coding": [{"system": "http://hl7.org/fhir/title-type", "code": "official", "display": "Official title"}]}], "text": "Fast Evidence Interoperability Resources (FEvIR) Platform"}, {"type": [{"coding": [{"system": "http://hl7.org/fhir/title-type", "code": "short-title", "display": "Short title"}]}], "text": "FEvIR Platform"}], "version": "0.230.0", "contributorship": {"entry": [{"contributor": {"reference": "#contributor0", "type": "Organization", "display": "Computable Publishing LLC"}, "correspondingContact": true, "role": {"coding": [{"system": "http://hl7.org/fhir/contributor-role", "code": "publisher", "display": "Publisher"}]}}, {"contributor": {"reference": "#contributor1", "type": "Practitioner"}, "forenameInitials": "BS", "affiliation": [{"display": "Computable Publishing LLC"}, {"display": "Scientific Knowledge Accelerator Foundation"}], "role": {"coding": [{"system": "http://hl7.org/fhir/contributor-role", "code": "author", "display": "Author/Creator"}]}, "contributionType": [{"coding": [{"system": "http://hl7.org/fhir/artifact-contribution-type", "code": "conceptualization", "display": "Conceptualization"}]}, {"coding": [{"system": "http://hl7.org/fhir/artifact-contribution-type", "code": "funding-acquisition", "display": "Funding acquisition"}]}, {"coding": [{"system": "http://hl7.org/fhir/artifact-contribution-type", "code": "project-administration", "display": "Project administration"}]}, {"coding": [{"system": "http://hl7.org/fhir/artifact-contribution-type", "code": "methodology", "display": "Methodology"}]}, {"coding": [{"system": "http://hl7.org/fhir/artifact-contribution-type", "code": "software", "display": "Software"}]}, {"coding": [{"system": "http://hl7.org/fhir/artifact-contribution-type", "code": "supervision", "display": "Supervision"}]}, {"coding": [{"system": "http://hl7.org/fhir/artifact-contribution-type", "code": "visualization", "display": "Visualization"}]}, {"coding": [{"system": "http://hl7.org/fhir/artifact-contribution-type", "code": "validation", "display": "Validation"}]}, {"coding": [{"system": "http://hl7.org/fhir/artifact-contribution-type", "code": "writing-review-editing", "display": "Writing - review & editing"}]}, {"coding": [{"system": "http://hl7.org/fhir/artifact-contribution-type", "code": "writing-original-draft", "display": "Writing - original draft"}]}]}, {"contributor": {"reference": "#contributor2", "type": "Practitioner"}, "affiliation": [{"display": "Computable Publishing LLC"}, {"display": "Scientific Knowledge Accelerator Foundation"}], "role": {"coding": [{"system": "http://hl7.org/fhir/contributor-role", "code": "author", "display": "Author/Creator"}]}, "contributionType": [{"coding": [{"system": "http://hl7.org/fhir/artifact-contribution-type", "code": "data-curation", "display": "Data curation"}]}, {"coding": [{"system": "http://hl7.org/fhir/artifact-contribution-type", "code": "formal-analysis", "display": "Formal analysis"}]}, {"coding": [{"system": "http://hl7.org/fhir/artifact-contribution-type", "code": "methodology", "display": "Methodology"}]}, {"coding": [{"system": "http://hl7.org/fhir/artifact-contribution-type", "code": "project-administration", "display": "Project administration"}]}, {"coding": [{"system": "http://hl7.org/fhir/artifact-contribution-type", "code": "software", "display": "Software"}]}, {"coding": [{"system": "http://hl7.org/fhir/artifact-contribution-type", "code": "validation", "display": "Validation"}]}, {"coding": [{"system": "http://hl7.org/fhir/artifact-contribution-type", "code": "visualization", "display": "Visualization"}]}, {"coding": [{"system": "http://hl7.org/fhir/artifact-contribution-type", "code": "writing-original-draft", "display": "Writing - original draft"}]}, {"coding": [{"system": "http://hl7.org/fhir/artifact-contribution-type", "code": "writing-review-editing", "display": "Writing - review & editing"}]}]}], "complete": true}}, "author": [{"name": "Brian S. Alper"}], "status": "active", "date": "2022-06-21T02:46:39.587Z", "meta": {"versionId": "25", "lastUpdated": "2025-07-22T13:46:02.179Z", "profile": ["http://hl7.org/fhir/uv/ebm/StructureDefinition/database-citation"]}, "url": "https://fevir.net/resources/Citation/29812", "id": "29812", "identifier": [{"type": {"text": "FEvIR Object Identifier", "coding": [{"system": "http://terminology.hl7.org/CodeSystem/v2-0203", "code": "ACSN", "display": "Accession ID"}]}, "system": "urn:ietf:rfc:3986", "value": "https://fevir.net/FOI/29812", "assigner": {"display": "Computable Publishing LLC"}}], "publisher": "Computable Publishing LLC", "copyright": "https://creativecommons.org/licenses/by-nc-sa/4.0/", "contact": [{"telecom": [{"system": "email", "value": "support@computablepublishing.com"}]}], "summary": [{"style": {"coding": [{"system": "http://hl7.org/fhir/citation-summary-style", "code": "comppub", "display": "Computable Publishing"}]}, "text": "Fast Evidence Interoperability Resources (FEvIR) Platform [Database]. Contributors: Computable Publishing LLC [Publisher];  Brian S Alper,  Khalid Shahin [Authors]. Published February 15, 2021. Revised July 22, 2025. Available at: https://fevir.net/."}, {"style": {"text": "NLM"}, "text": "Alper BS, Shahin K. Fast Evidence Interoperability Resources (FEvIR) Platform [Internet]. Version 0.317.0. Franklin (NC): Computable Publishing LLC. 2021 Feb 15 -  [updated 2025 Jul 22, cited 2025 Jul 22]. Available from: https://fevir.net/."}], "contained": [{"resourceType": "Organization", "id": "contributor0", "name": "Computable Publishing LLC", "contact": [{"telecom": [{"system": "email", "value": "support@computablepublishing.com"}]}], "telecom": [{"system": "email", "value": "support@computablepublishing.com"}]}, {"resourceType": "Practitioner", "id": "contributor1", "name": [{"family": "Alper", "given": ["Brian S"]}], "identifier": [{"system": "https://orcid.org/", "value": "0000-0003-4300-4928"}]}, {"resourceType": "Practitioner", "id": "contributor2", "name": [{"family": "Shahin", "given": ["Khalid"]}], "identifier": [{"system": "https://orcid.org/", "value": "0000-0002-3526-7667"}]}], "description": "This Citation Resource is referenced in an example for the EBMonFHIR Implementation Guide."}