{"resourceType": "Citation", "contained": [{"resourceType": "ArtifactAssessment", "id": "keywords0", "artifactReference": {"reference": "Citation/33399", "type": "Citation"}, "content": [{"classifier": [{"text": "Atrial fibrillation"}]}, {"classifier": [{"text": "Bariatric surgery"}]}, {"classifier": [{"text": "Cardiovascular disease"}]}, {"classifier": [{"text": "Heart failure"}]}, {"classifier": [{"text": "Metabolic surgery"}]}, {"classifier": [{"text": "Myocardial infarction"}]}, {"classifier": [{"text": "Obesity"}]}, {"classifier": [{"text": "Outcome"}]}]}, {"resourceType": "Practitioner", "id": "author0", "identifier": [{"value": "0000-0002-0044-8441", "type": {"text": "ORCID", "coding": [{"system": "http://terminology.hl7.org/CodeSystem/v2-0203", "code": "PRN", "display": "Provider number"}]}, "system": "https://orcid.org/"}], "name": [{"family": "van Veldhuisen", "given": ["Sophie L"]}]}, {"resourceType": "ArtifactAssessment", "id": "meshHeading0", "artifactReference": {"reference": "#", "type": "Citation"}, "content": [{"type": {"coding": [{"system": "http://terminology.hl7.org/CodeSystem/cited-artifact-classification-type", "code": "mesh-heading", "display": "MeSH heading"}], "text": "components (if present) include qualifier codings"}, "classifier": [{"coding": [{"system": "https://www.nlm.nih.gov/mesh", "code": "D001281", "display": "Atrial Fibrillation", "userSelected": false}]}], "freeToShare": true, "component": [{"type": {"text": "qualifier"}, "classifier": [{"text": "is Major topic"}]}, {"type": {"text": "qualifier"}, "classifier": [{"coding": [{"system": "https://www.nlm.nih.gov/mesh", "code": "Q000150", "display": "complications"}]}], "component": [{"type": {"text": "is Major topic"}, "classifier": [{"coding": [{"system": "http://ncicb.nci.nih.gov/xml/owl/EVS/Thesaurus.owl", "code": "C49487", "display": "No"}]}]}]}, {"type": {"text": "qualifier"}, "classifier": [{"coding": [{"system": "https://www.nlm.nih.gov/mesh", "code": "Q000209", "display": "etiology"}]}], "component": [{"type": {"text": "is Major topic"}, "classifier": [{"coding": [{"system": "http://ncicb.nci.nih.gov/xml/owl/EVS/Thesaurus.owl", "code": "C49487", "display": "No"}]}]}]}]}, {"type": {"coding": [{"system": "http://terminology.hl7.org/CodeSystem/cited-artifact-classification-type", "code": "mesh-heading", "display": "MeSH heading"}], "text": "components (if present) include qualifier codings"}, "classifier": [{"coding": [{"system": "https://www.nlm.nih.gov/mesh", "code": "D050110", "display": "Bariatric Surgery", "userSelected": false}]}], "freeToShare": true, "component": [{"type": {"text": "qualifier"}, "classifier": [{"text": "is Major topic"}]}, {"type": {"text": "qualifier"}, "classifier": [{"coding": [{"system": "https://www.nlm.nih.gov/mesh", "code": "Q000009", "display": "adverse effects"}]}], "component": [{"type": {"text": "is Major topic"}, "classifier": [{"coding": [{"system": "http://ncicb.nci.nih.gov/xml/owl/EVS/Thesaurus.owl", "code": "C49487", "display": "No"}]}]}]}]}, {"type": {"coding": [{"system": "http://terminology.hl7.org/CodeSystem/cited-artifact-classification-type", "code": "mesh-heading", "display": "MeSH heading"}], "text": "components (if present) include qualifier codings"}, "classifier": [{"coding": [{"system": "https://www.nlm.nih.gov/mesh", "code": "D002318", "display": "Cardiovascular Diseases", "userSelected": false}]}], "freeToShare": true, "component": [{"type": {"text": "qualifier"}, "classifier": [{"text": "is Major topic"}]}, {"type": {"text": "qualifier"}, "classifier": [{"coding": [{"system": "https://www.nlm.nih.gov/mesh", "code": "Q000209", "display": "etiology"}]}], "component": [{"type": {"text": "is Major topic"}, "classifier": [{"coding": [{"system": "http://ncicb.nci.nih.gov/xml/owl/EVS/Thesaurus.owl", "code": "C49487", "display": "No"}]}]}]}]}, {"type": {"coding": [{"system": "http://terminology.hl7.org/CodeSystem/cited-artifact-classification-type", "code": "mesh-heading", "display": "MeSH heading"}], "text": "components (if present) include qualifier codings"}, "classifier": [{"coding": [{"system": "https://www.nlm.nih.gov/mesh", "code": "D006333", "display": "Heart Failure", "userSelected": false}]}], "freeToShare": true, "component": [{"type": {"text": "qualifier"}, "classifier": [{"text": "is Major topic"}]}, {"type": {"text": "qualifier"}, "classifier": [{"coding": [{"system": "https://www.nlm.nih.gov/mesh", "code": "Q000150", "display": "complications"}]}], "component": [{"type": {"text": "is Major topic"}, "classifier": [{"coding": [{"system": "http://ncicb.nci.nih.gov/xml/owl/EVS/Thesaurus.owl", "code": "C49487", "display": "No"}]}]}]}]}, {"type": {"coding": [{"system": "http://terminology.hl7.org/CodeSystem/cited-artifact-classification-type", "code": "mesh-heading", "display": "MeSH heading"}], "text": "components (if present) include qualifier codings"}, "classifier": [{"coding": [{"system": "https://www.nlm.nih.gov/mesh", "code": "D006801", "display": "Humans", "userSelected": false}]}], "freeToShare": true, "component": [{"type": {"text": "qualifier"}, "classifier": [{"text": "is not a major topic"}]}]}, {"type": {"coding": [{"system": "http://terminology.hl7.org/CodeSystem/cited-artifact-classification-type", "code": "mesh-heading", "display": "MeSH heading"}], "text": "components (if present) include qualifier codings"}, "classifier": [{"coding": [{"system": "https://www.nlm.nih.gov/mesh", "code": "D009203", "display": "Myocardial Infarction", "userSelected": false}]}], "freeToShare": true, "component": [{"type": {"text": "qualifier"}, "classifier": [{"text": "is Major topic"}]}, {"type": {"text": "qualifier"}, "classifier": [{"coding": [{"system": "https://www.nlm.nih.gov/mesh", "code": "Q000150", "display": "complications"}]}], "component": [{"type": {"text": "is Major topic"}, "classifier": [{"coding": [{"system": "http://ncicb.nci.nih.gov/xml/owl/EVS/Thesaurus.owl", "code": "C49487", "display": "No"}]}]}]}, {"type": {"text": "qualifier"}, "classifier": [{"coding": [{"system": "https://www.nlm.nih.gov/mesh", "code": "Q000453", "display": "epidemiology"}]}], "component": [{"type": {"text": "is Major topic"}, "classifier": [{"coding": [{"system": "http://ncicb.nci.nih.gov/xml/owl/EVS/Thesaurus.owl", "code": "C49487", "display": "No"}]}]}]}]}, {"type": {"coding": [{"system": "http://terminology.hl7.org/CodeSystem/cited-artifact-classification-type", "code": "mesh-heading", "display": "MeSH heading"}], "text": "components (if present) include qualifier codings"}, "classifier": [{"coding": [{"system": "https://www.nlm.nih.gov/mesh", "code": "D009765", "display": "Obesity", "userSelected": false}]}], "freeToShare": true, "component": [{"type": {"text": "qualifier"}, "classifier": [{"text": "is not a major topic"}]}, {"type": {"text": "qualifier"}, "classifier": [{"coding": [{"system": "https://www.nlm.nih.gov/mesh", "code": "Q000150", "display": "complications"}]}], "component": [{"type": {"text": "is Major topic"}, "classifier": [{"coding": [{"system": "http://ncicb.nci.nih.gov/xml/owl/EVS/Thesaurus.owl", "code": "C49487", "display": "No"}]}]}]}, {"type": {"text": "qualifier"}, "classifier": [{"coding": [{"system": "https://www.nlm.nih.gov/mesh", "code": "Q000453", "display": "epidemiology"}]}], "component": [{"type": {"text": "is Major topic"}, "classifier": [{"coding": [{"system": "http://ncicb.nci.nih.gov/xml/owl/EVS/Thesaurus.owl", "code": "C49487", "display": "No"}]}]}]}, {"type": {"text": "qualifier"}, "classifier": [{"coding": [{"system": "https://www.nlm.nih.gov/mesh", "code": "Q000601", "display": "surgery"}]}], "component": [{"type": {"text": "is Major topic"}, "classifier": [{"coding": [{"system": "http://ncicb.nci.nih.gov/xml/owl/EVS/Thesaurus.owl", "code": "C49487", "display": "No"}]}]}]}]}, {"type": {"coding": [{"system": "http://terminology.hl7.org/CodeSystem/cited-artifact-classification-type", "code": "mesh-heading", "display": "MeSH heading"}], "text": "components (if present) include qualifier codings"}, "classifier": [{"coding": [{"system": "https://www.nlm.nih.gov/mesh", "code": "D011446", "display": "Prospective Studies", "userSelected": false}]}], "freeToShare": true, "component": [{"type": {"text": "qualifier"}, "classifier": [{"text": "is not a major topic"}]}]}, {"type": {"coding": [{"system": "http://terminology.hl7.org/CodeSystem/cited-artifact-classification-type", "code": "mesh-heading", "display": "MeSH heading"}], "text": "components (if present) include qualifier codings"}, "classifier": [{"coding": [{"system": "https://www.nlm.nih.gov/mesh", "code": "D012189", "display": "Retrospective Studies", "userSelected": false}]}], "freeToShare": true, "component": [{"type": {"text": "qualifier"}, "classifier": [{"text": "is not a major topic"}]}]}, {"type": {"coding": [{"system": "http://terminology.hl7.org/CodeSystem/cited-artifact-classification-type", "code": "mesh-heading", "display": "MeSH heading"}], "text": "components (if present) include qualifier codings"}, "classifier": [{"coding": [{"system": "https://www.nlm.nih.gov/mesh", "code": "D020521", "display": "Stroke", "userSelected": false}]}], "freeToShare": true, "component": [{"type": {"text": "qualifier"}, "classifier": [{"text": "is Major topic"}]}, {"type": {"text": "qualifier"}, "classifier": [{"coding": [{"system": "https://www.nlm.nih.gov/mesh", "code": "Q000150", "display": "complications"}]}], "component": [{"type": {"text": "is Major topic"}, "classifier": [{"coding": [{"system": "http://ncicb.nci.nih.gov/xml/owl/EVS/Thesaurus.owl", "code": "C49487", "display": "No"}]}]}]}, {"type": {"text": "qualifier"}, "classifier": [{"coding": [{"system": "https://www.nlm.nih.gov/mesh", "code": "Q000453", "display": "epidemiology"}]}], "component": [{"type": {"text": "is Major topic"}, "classifier": [{"coding": [{"system": "http://ncicb.nci.nih.gov/xml/owl/EVS/Thesaurus.owl", "code": "C49487", "display": "No"}]}]}]}]}]}, {"resourceType": "Practitioner", "id": "author1", "identifier": [{"value": "0000-0001-5000-8359", "type": {"text": "ORCID", "coding": [{"system": "http://terminology.hl7.org/CodeSystem/v2-0203", "code": "PRN", "display": "Provider number"}]}, "system": "https://orcid.org/"}], "name": [{"family": "Gorter", "given": ["Thomas M"]}]}, {"resourceType": "Practitioner", "id": "author2", "identifier": [{"value": "0000-0001-7907-2944", "type": {"text": "ORCID", "coding": [{"system": "http://terminology.hl7.org/CodeSystem/v2-0203", "code": "PRN", "display": "Provider number"}]}, "system": "https://orcid.org/"}], "name": [{"family": "van Woerden", "given": ["Gijs"]}]}, {"resourceType": "Practitioner", "id": "author3", "name": [{"family": "de Boer", "given": ["Rudolf A"]}]}, {"resourceType": "Practitioner", "id": "author4", "identifier": [{"value": "0000-0002-2581-070X", "type": {"text": "ORCID", "coding": [{"system": "http://terminology.hl7.org/CodeSystem/v2-0203", "code": "PRN", "display": "Provider number"}]}, "system": "https://orcid.org/"}], "name": [{"family": "Rienstra", "given": ["Michiel"]}]}, {"resourceType": "Practitioner", "id": "author5", "identifier": [{"value": "0000-0001-5458-3334", "type": {"text": "ORCID", "coding": [{"system": "http://terminology.hl7.org/CodeSystem/v2-0203", "code": "PRN", "display": "Provider number"}]}, "system": "https://orcid.org/"}], "name": [{"family": "Hazebroek", "given": ["Eric J"]}]}, {"resourceType": "Practitioner", "id": "author6", "name": [{"family": "van Veldhuisen", "given": ["Dirk J"]}]}], "classification": [{"type": {"coding": [{"system": "http://terminology.hl7.org/CodeSystem/citation-classification-type", "code": "fevir-platform-use", "display": "FEvIR Platform Use"}]}, "classifier": [{"coding": [{"system": "http://terminology.hl7.org/CodeSystem/citation-artifact-classifier", "code": "medline-base", "display": "Medline Base", "userSelected": false}]}]}, {"type": {"coding": [{"system": "http://terminology.hl7.org/CodeSystem/citation-classification-type", "code": "medline-owner", "display": "MEDLINE Citation Owner"}]}, "classifier": [{"coding": [{"system": "https://www.nlm.nih.gov/bsd/licensee/elements_descriptions.html#owner_value", "code": "NLM", "display": "National Library of Medicine, Index Section", "userSelected": false}]}]}], "statusDate": [{"activity": {"coding": [{"system": "http://hl7.org/fhir/citation-status-type", "code": "pubmed-pubstatus-received", "display": "PubMed Pubstatus of Received"}]}, "period": {"end": "2021-05-24"}}, {"activity": {"coding": [{"system": "http://hl7.org/fhir/citation-status-type", "code": "pubmed-pubstatus-revised", "display": "PubMed Pubstatus of Revised"}]}, "period": {"end": "2022-02-02"}}, {"activity": {"coding": [{"system": "http://hl7.org/fhir/citation-status-type", "code": "pubmed-pubstatus-accepted", "display": "PubMed Pubstatus of Accepted"}]}, "period": {"end": "2022-02-03"}}, {"activity": {"coding": [{"system": "http://hl7.org/fhir/citation-status-type", "code": "pubmed-pubstatus-entrez", "display": "PubMed Pubstatus of Entrez"}]}, "period": {"end": "2022-03-04T05:44:00.000Z"}}, {"activity": {"coding": [{"system": "http://hl7.org/fhir/citation-status-type", "code": "pubmed-pubstatus-pubmed", "display": "PubMed Pubstatus of PubMed"}]}, "period": {"end": "2022-03-05T06:00:00.000Z"}}, {"activity": {"coding": [{"system": "http://hl7.org/fhir/citation-status-type", "code": "pubmed-pubstatus-medline", "display": "PubMed Pubstatus of Medline"}]}, "period": {"end": "2022-03-05T06:00:00.000Z"}}], "lastReviewDate": "2022-03-10", "currentState": [{"coding": [{"system": "http://hl7.org/fhir/citation-status-type", "code": "medline-publisher", "display": "Medline Citation Status of Publisher"}]}, {"coding": [{"system": "http://hl7.org/fhir/citation-status-type", "code": "pubmed-publication-status-aheadofprint", "display": "PubMed PublicationStatus of aheadofprint"}]}], "title": "StudyCitation: 2022 Systematic Review of bariatric surgery mortality effect 35243488", "status": "active", "date": "2022-05-28T12:27:14.033Z", "url": "https://fevir.net/resources/Citation/33400", "meta": {"versionId": "20", "lastUpdated": "2025-10-13T09:55:39.733Z"}, "id": "33400", "publisher": "Computable Publishing LLC", "copyright": "https://creativecommons.org/licenses/by-nc-sa/4.0/", "contact": [{"telecom": [{"system": "email", "value": "support@computablepublishing.com"}]}], "identifier": [{"type": {"text": "FEvIR Object Identifier", "coding": [{"system": "http://terminology.hl7.org/CodeSystem/v2-0203", "code": "ACSN", "display": "Accession ID"}]}, "system": "https://fevir.net/FOI", "value": "33400", "assigner": {"display": "Computable Publishing LLC"}}, {"system": "https://pubmed.ncbi.nlm.nih.gov", "value": "35243488", "assigner": {"display": "NLM"}}], "author": [{"name": "Brian S. Alper"}], "useContext": [{"code": {"system": "http://terminology.hl7.org/CodeSystem/citation-classification-type", "code": "fevir-platform-use", "display": "FEvIR Platform Use"}, "valueCodeableConcept": {"coding": [{"system": "http://terminology.hl7.org/CodeSystem/citation-artifact-classifier", "code": "medline-base", "display": "Medline Base"}]}}], "summary": [{"style": {"coding": [{"system": "http://terminology.hl7.org/CodeSystem/citation-summary-style", "code": "comppub", "display": "Computable Publishing"}]}, "text": "Bariatric surgery and cardiovascular disease: a systematic review and meta-analysis [Journal Article]. Contributors: van Veldhuisen SL, Gorter TM, van Woerden G, de Boer RA, Rienstra M, Hazebroek EJ, van Veldhuisen DJ. In: European heart journal, PMID 35243488. Published March 04, 2022. Available at: https://pubmed.ncbi.nlm.nih.gov/35243488/."}], "citedArtifact": {"identifier": [{"system": "https://pubmed.ncbi.nlm.nih.gov", "value": "35243488"}, {"system": "https://www.ncbi.nlm.nih.gov/pmc/", "value": "PMC9123239"}, {"system": "https://doi.org", "value": "10.1093/eurheartj/ehac071"}, {"type": {"text": "pii", "coding": [{"system": "http://terminology.hl7.org/CodeSystem/v2-0203", "code": "ACSN", "display": "Accession ID"}]}, "value": "6542137"}], "title": [{"text": "Bariatric surgery and cardiovascular disease: a systematic review and meta-analysis.", "language": {"coding": [{"system": "urn:ietf:bcp:47", "code": "en", "display": "English"}]}, "type": [{"coding": [{"system": "http://terminology.hl7.org/CodeSystem/title-type", "code": "primary", "display": "Primary title"}]}]}], "abstract": [{"copyright": "\u00a9 The Author(s) 2022. Published by Oxford University Press on behalf of European Society of Cardiology.", "text": "**AIMS:** Obesity is a global health problem, associated with significant morbidity and mortality, often due to cardiovascular (CV) diseases. While bariatric surgery is increasingly performed in patients with obesity and reduces CV risk factors, its effect on CV disease is not established. We conducted a systematic review and meta-analysis to evaluate the effect of bariatric surgery on CV outcomes, in accordance with the Preferred Reporting Items for Systematic Reviews and Meta-Analyses guideline.\n**METHODS AND RESULTS:** PubMed and Embase were searched for literature until August 2021 which compared bariatric surgery patients to non-surgical controls. Outcomes of interest were all-cause and CV mortality, atrial fibrillation (AF), heart failure (HF), myocardial infarction, and stroke. We included 39 studies, all prospective or retrospective cohort studies, but randomized outcome trials were not available. Bariatric surgery was associated with a beneficial effect on all-cause mortality [pooled hazard ratio (HR) of 0.55; 95% confidence interval (CI) 0.49-0.62, P &lt; 0.001 vs. controls], and CV mortality (HR 0.59, 95% CI 0.47-0.73, P &lt; 0.001). In addition, bariatric surgery was also associated with a reduced incidence of HF (HR 0.50, 95% CI 0.38-0.66, P &lt; 0.001), myocardial infarction (HR 0.58, 95% CI 0.43-0.76, P &lt; 0.001), and stroke (HR 0.64, 95% CI 0.53-0.77, P &lt; 0.001), while its association with AF was not statistically significant (HR 0.82, 95% CI 0.64-1.06, P = 0.12).\n**CONCLUSION:** The present systematic review and meta-analysis suggests that bariatric surgery is associated with reduced all-cause and CV mortality, and lowered incidence of several CV diseases in patients with obesity. Bariatric surgery should therefore be considered in these patients."}], "relatesTo": [{"type": "cites", "classifier": [{"coding": [{"system": "http://hl7.org/fhir/citation-artifact-classifier", "code": "D016428", "display": "Journal Article"}]}], "citation": "GBD 2015 Obesity Collaborators, Afshin \u00a0A, Forouzanfar \u00a0MH, Reitsma \u00a0MB, Sur \u00a0P, Estep \u00a0K, et al. \u00a0Health effects of overweight and obesity in 195 countries over 25 years. N Engl J Med \u00a02017;377:13\u201327.", "targetReference": {"identifier": {"system": "https://pubmed.ncbi.nlm.nih.gov", "value": "28604169", "assigner": {"display": "NLM"}}, "reference": "https://pubmed.ncbi.nlm.nih.gov/28604169/"}}, {"type": "cites", "classifier": [{"coding": [{"system": "http://hl7.org/fhir/citation-artifact-classifier", "code": "D016428", "display": "Journal Article"}]}], "citation": "Heymsfield \u00a0SB, Wadden \u00a0TA. Mechanisms, pathophysiology, and management of obesity. N Engl J Med \u00a02017;376:254\u2013266.", "targetReference": {"identifier": {"system": "https://pubmed.ncbi.nlm.nih.gov", "value": "28099824", "assigner": {"display": "NLM"}}, "reference": "https://pubmed.ncbi.nlm.nih.gov/28099824/"}}, {"type": "cites", "classifier": [{"coding": [{"system": "http://hl7.org/fhir/citation-artifact-classifier", "code": "D016428", "display": "Journal Article"}]}], "citation": "Global BMI Mortality Collaboration, Di Angelantonio \u00a0E, Bhupathiraju \u00a0SN, Wormser \u00a0D, Gao \u00a0P, Kaptoge \u00a0S, et al. \u00a0Body-mass index and all-cause mortality: individual-participant-data meta-analysis of 239 prospective studies in four continents. Lancet \u00a02016;388:776\u2013786.", "targetReference": {"identifier": {"system": "https://pubmed.ncbi.nlm.nih.gov", "value": "27423262", "assigner": {"display": "NLM"}}, "reference": "https://pubmed.ncbi.nlm.nih.gov/27423262/"}}, {"type": "cites", "classifier": [{"coding": [{"system": "http://hl7.org/fhir/citation-artifact-classifier", "code": "D016428", "display": "Journal Article"}]}], "citation": "Lassale \u00a0C, Tzoulaki \u00a0I, Moons \u00a0KGM, Sweeting \u00a0M, Boer \u00a0J, Johnson \u00a0L, et al. \u00a0Separate and combined associations of obesity and metabolic health with coronary heart disease: a pan-European case-cohort analysis. Eur Heart J \u00a02018;39:397\u2013406.", "targetReference": {"identifier": {"system": "https://pubmed.ncbi.nlm.nih.gov", "value": "29020414", "assigner": {"display": "NLM"}}, "reference": "https://pubmed.ncbi.nlm.nih.gov/29020414/"}}, {"type": "cites", "classifier": [{"coding": [{"system": "http://hl7.org/fhir/citation-artifact-classifier", "code": "D016428", "display": "Journal Article"}]}], "citation": "GBD 2015 Obesity Collaborators, Afshin \u00a0A, Forouzanfar \u00a0MH, Reitsma \u00a0MB, Sur \u00a0P, Estep \u00a0K, et al. \u00a0Health effects of overweight and obesity in 195 countries over 25 years. N Engl J Med \u00a02017;377(1):13\u201327.", "targetReference": {"identifier": {"system": "https://pubmed.ncbi.nlm.nih.gov", "value": "28604169", "assigner": {"display": "NLM"}}, "reference": "https://pubmed.ncbi.nlm.nih.gov/28604169/"}}, {"type": "cites", "classifier": [{"coding": [{"system": "http://hl7.org/fhir/citation-artifact-classifier", "code": "D016428", "display": "Journal Article"}]}], "citation": "Hales \u00a0CM, Fryar \u00a0CD, Carroll \u00a0MD, Freedman \u00a0DS, Ogden \u00a0CL. Trends in obesity and severe obesity prevalence in US youth and adults by sex and age, 2007\u20132008 to 2015\u20132016. JAMA \u00a02018;319:1723\u20131725.", "targetReference": {"identifier": {"system": "https://pubmed.ncbi.nlm.nih.gov", "value": "29570750", "assigner": {"display": "NLM"}}, "reference": "https://pubmed.ncbi.nlm.nih.gov/29570750/"}}, {"type": "cites", "classifier": [{"coding": [{"system": "http://hl7.org/fhir/citation-artifact-classifier", "code": "D016428", "display": "Journal Article"}]}], "citation": "Ward \u00a0ZJ, Bleich \u00a0SN, Cradock \u00a0AL, Barrett \u00a0JL, Giles \u00a0CM, Flax \u00a0C, et al. \u00a0Projected U.S. state-level prevalence of adult obesity and severe obesity. N Engl J Med \u00a02019;381:2440\u20132450.", "targetReference": {"identifier": {"system": "https://pubmed.ncbi.nlm.nih.gov", "value": "31851800", "assigner": {"display": "NLM"}}, "reference": "https://pubmed.ncbi.nlm.nih.gov/31851800/"}}, {"type": "cites", "classifier": [{"coding": [{"system": "http://hl7.org/fhir/citation-artifact-classifier", "code": "D016428", "display": "Journal Article"}]}], "citation": "Bays \u00a0HE. Adiposopathy is \u201csick fat\u201d a cardiovascular disease? \u00a0J Am Coll Cardiol \u00a02011;57:2461\u20132473.", "targetReference": {"identifier": {"system": "https://pubmed.ncbi.nlm.nih.gov", "value": "21679848", "assigner": {"display": "NLM"}}, "reference": "https://pubmed.ncbi.nlm.nih.gov/21679848/"}}, {"type": "cites", "classifier": [{"coding": [{"system": "http://hl7.org/fhir/citation-artifact-classifier", "code": "D016428", "display": "Journal Article"}]}], "citation": "Packer \u00a0M. The epicardial adipose inflammatory triad: coronary atherosclerosis, atrial fibrillation, and heart failure with a preserved ejection fraction. Eur J Heart Fail \u00a02018;20:1567\u20131569.", "targetReference": {"identifier": {"system": "https://pubmed.ncbi.nlm.nih.gov", "value": "30225884", "assigner": {"display": "NLM"}}, "reference": "https://pubmed.ncbi.nlm.nih.gov/30225884/"}}, {"type": "cites", "classifier": [{"coding": [{"system": "http://hl7.org/fhir/citation-artifact-classifier", "code": "D016428", "display": "Journal Article"}]}], "citation": "Hall \u00a0JE, da Silva \u00a0AA, do Carmo \u00a0JM, Dubinion \u00a0J, Hamza \u00a0S, Munusamy \u00a0S, et al. \u00a0Obesity-induced hypertension: role of sympathetic nervous system, leptin, and melanocortins. J Biol Chem \u00a02010;285:17271\u201317276.", "targetReference": {"identifier": {"system": "https://pubmed.ncbi.nlm.nih.gov", "value": "20348094", "assigner": {"display": "NLM"}}, "reference": "https://pubmed.ncbi.nlm.nih.gov/20348094/"}}, {"type": "cites", "classifier": [{"coding": [{"system": "http://hl7.org/fhir/citation-artifact-classifier", "code": "D016428", "display": "Journal Article"}]}], "citation": "Ashrafian \u00a0H, Toma \u00a0T, Rowland \u00a0SP, Harling \u00a0L, Tan \u00a0A, Efthimiou \u00a0E, et al. \u00a0Bariatric surgery or non-surgical weight loss for obstructive sleep apnoea? A systematic review and comparison of meta-analyses. Obes Surg \u00a02015;25:1239\u20131250.", "targetReference": {"identifier": {"system": "https://pubmed.ncbi.nlm.nih.gov", "value": "25537297", "assigner": {"display": "NLM"}}, "reference": "https://pubmed.ncbi.nlm.nih.gov/25537297/"}}, {"type": "cites", "classifier": [{"coding": [{"system": "http://hl7.org/fhir/citation-artifact-classifier", "code": "D016428", "display": "Journal Article"}]}], "citation": "Nguyen \u00a0NT, Magno \u00a0CP, Lane \u00a0KT, Hinojosa \u00a0MW, Lane \u00a0JS. Association of hypertension, diabetes, dyslipidemia, and metabolic syndrome with obesity: findings from the National Health and Nutrition Examination Survey, 1999 to 2004. J Am Coll Surg \u00a02008;207:928\u2013934.", "targetReference": {"identifier": {"system": "https://pubmed.ncbi.nlm.nih.gov", "value": "19183541", "assigner": {"display": "NLM"}}, "reference": "https://pubmed.ncbi.nlm.nih.gov/19183541/"}}, {"type": "cites", "classifier": [{"coding": [{"system": "http://hl7.org/fhir/citation-artifact-classifier", "code": "D016428", "display": "Journal Article"}]}], "citation": "Aune \u00a0D, Sen \u00a0A, Schlesinger \u00a0S, Norat \u00a0T, Janszky \u00a0I, Romundstad \u00a0P, et al. \u00a0Body mass index, abdominal fatness, fat mass and the risk of atrial fibrillation: a systematic review and dose\u2013response meta-analysis of prospective studies. Eur J Epidemiol \u00a02017;32:181\u2013192.", "targetReference": {"identifier": {"system": "https://pubmed.ncbi.nlm.nih.gov", "value": "28194602", "assigner": {"display": "NLM"}}, "reference": "https://pubmed.ncbi.nlm.nih.gov/28194602/"}}, {"type": "cites", "classifier": [{"coding": [{"system": "http://hl7.org/fhir/citation-artifact-classifier", "code": "D016428", "display": "Journal Article"}]}], "citation": "Brouwers \u00a0FP, de Boer \u00a0RA, van der Harst \u00a0P, Voors \u00a0AA, Gansevoort \u00a0RT, Bakker \u00a0SJ, et al. \u00a0Incidence and epidemiology of new onset heart failure with preserved vs. reduced ejection fraction in a community-based cohort: 11-year follow-up of PREVEND. Eur Heart J \u00a02013;34:1424\u20131431.", "targetReference": {"identifier": {"system": "https://pubmed.ncbi.nlm.nih.gov", "value": "23470495", "assigner": {"display": "NLM"}}, "reference": "https://pubmed.ncbi.nlm.nih.gov/23470495/"}}, {"type": "cites", "classifier": [{"coding": [{"system": "http://hl7.org/fhir/citation-artifact-classifier", "code": "D016428", "display": "Journal Article"}]}], "citation": "Rosengren \u00a0A, Aberg \u00a0M, Robertson \u00a0J, Waern \u00a0M, Schaufelberger \u00a0M, Kuhn \u00a0G, et al. \u00a0Body weight in adolescence and long-term risk of early heart failure in adulthood among men in Sweden. Eur Heart J \u00a02017;38:1926\u20131933.", "targetReference": {"identifier": {"system": "https://pubmed.ncbi.nlm.nih.gov", "value": "27311731", "assigner": {"display": "NLM"}}, "reference": "https://pubmed.ncbi.nlm.nih.gov/27311731/"}}, {"type": "cites", "classifier": [{"coding": [{"system": "http://hl7.org/fhir/citation-artifact-classifier", "code": "D016428", "display": "Journal Article"}]}], "citation": "Global Burden of Metabolic Risk Factors for Chronic Diseases Collaboration (BMI Mediated Effects), Lu \u00a0Y, Hajifathalian \u00a0K, Ezzati \u00a0M, Woodward \u00a0M, Rimm \u00a0EB, et al. \u00a0Metabolic mediators of the effects of body-mass index, overweight, and obesity on coronary heart disease and stroke: a pooled analysis of 97 prospective cohorts with 1.8 million participants. Lancet \u00a02014;383:970\u2013983.", "targetReference": {"identifier": {"system": "https://pubmed.ncbi.nlm.nih.gov", "value": "24269108", "assigner": {"display": "NLM"}}, "reference": "https://pubmed.ncbi.nlm.nih.gov/24269108/"}}, {"type": "cites", "classifier": [{"coding": [{"system": "http://hl7.org/fhir/citation-artifact-classifier", "code": "D016428", "display": "Journal Article"}]}], "citation": "Twig \u00a0G, Yaniv \u00a0G, Levine \u00a0H, Leiba \u00a0A, Goldberger \u00a0N, Derazne \u00a0E, et al. \u00a0Body-mass index in 2.3 million adolescents and cardiovascular death in adulthood. N Engl J Med \u00a02016;374:2430\u20132440.", "targetReference": {"identifier": {"system": "https://pubmed.ncbi.nlm.nih.gov", "value": "27074389", "assigner": {"display": "NLM"}}, "reference": "https://pubmed.ncbi.nlm.nih.gov/27074389/"}}, {"type": "cites", "classifier": [{"coding": [{"system": "http://hl7.org/fhir/citation-artifact-classifier", "code": "D016428", "display": "Journal Article"}]}], "citation": "Mitchell \u00a0AB, Cole \u00a0JW, McArdle \u00a0PF, Cheng \u00a0YC, Ryan \u00a0KA, Sparks \u00a0MJ, et al. \u00a0Obesity increases risk of ischemic stroke in young adults. Stroke \u00a02015;46:1690\u20131692.", "targetReference": {"identifier": {"system": "https://pubmed.ncbi.nlm.nih.gov", "value": "25944320", "assigner": {"display": "NLM"}}, "reference": "https://pubmed.ncbi.nlm.nih.gov/25944320/"}}, {"type": "cites", "classifier": [{"coding": [{"system": "http://hl7.org/fhir/citation-artifact-classifier", "code": "D016428", "display": "Journal Article"}]}], "citation": "Larsson \u00a0SC, Wolk \u00a0A, Hakansson \u00a0N, Back \u00a0M. Overall and abdominal obesity and incident aortic valve stenosis: two prospective cohort studies. Eur Heart J \u00a02017;38:2192\u20132197.", "targetReference": {"identifier": {"system": "https://pubmed.ncbi.nlm.nih.gov", "value": "28402538", "assigner": {"display": "NLM"}}, "reference": "https://pubmed.ncbi.nlm.nih.gov/28402538/"}}, {"type": "cites", "classifier": [{"coding": [{"system": "http://hl7.org/fhir/citation-artifact-classifier", "code": "D016428", "display": "Journal Article"}]}], "citation": "Bray \u00a0GA, Fr\u00fchbeck \u00a0G, Ryan \u00a0DH, Wilding \u00a0JP. Management of obesity. Lancet \u00a02016;387:1947\u20131956.", "targetReference": {"identifier": {"system": "https://pubmed.ncbi.nlm.nih.gov", "value": "26868660", "assigner": {"display": "NLM"}}, "reference": "https://pubmed.ncbi.nlm.nih.gov/26868660/"}}, {"type": "cites", "classifier": [{"coding": [{"system": "http://hl7.org/fhir/citation-artifact-classifier", "code": "D016428", "display": "Journal Article"}]}], "citation": "Look \u00a0ARG, Wing \u00a0RR, Bolin \u00a0P, Brancati \u00a0FL, Bray \u00a0GA, Clark \u00a0JM, et al. \u00a0Cardiovascular effects of intensive lifestyle intervention in type 2 diabetes. N Engl J Med \u00a02013;369:145\u2013154.", "targetReference": {"identifier": {"system": "https://pubmed.ncbi.nlm.nih.gov", "value": "23796131", "assigner": {"display": "NLM"}}, "reference": "https://pubmed.ncbi.nlm.nih.gov/23796131/"}}, {"type": "cites", "classifier": [{"coding": [{"system": "http://hl7.org/fhir/citation-artifact-classifier", "code": "D016428", "display": "Journal Article"}]}], "citation": "Wilding \u00a0JPH, Batterham \u00a0RL, Calanna \u00a0S, Davies \u00a0M, Van Gaal \u00a0LF, Lingvay \u00a0I, et al. \u00a0Once-weekly semaglutide in adults with overweight or obesity. N Engl J Med \u00a02021;384:989\u20131002.", "targetReference": {"identifier": {"system": "https://pubmed.ncbi.nlm.nih.gov", "value": "33567185", "assigner": {"display": "NLM"}}, "reference": "https://pubmed.ncbi.nlm.nih.gov/33567185/"}}, {"type": "cites", "classifier": [{"coding": [{"system": "http://hl7.org/fhir/citation-artifact-classifier", "code": "D016428", "display": "Journal Article"}]}], "citation": "Wilding \u00a0JPH, Jacob \u00a0S. Cardiovascular outcome trials in obesity: a review. Obes Rev \u00a02021;22:e13112.", "targetReference": {"identifier": {"system": "https://pubmed.ncbi.nlm.nih.gov", "value": "32893459", "assigner": {"display": "NLM"}}, "reference": "https://pubmed.ncbi.nlm.nih.gov/32893459/"}}, {"type": "cites", "classifier": [{"coding": [{"system": "http://hl7.org/fhir/citation-artifact-classifier", "code": "D016428", "display": "Journal Article"}]}], "citation": "Garvey \u00a0WT, Mechanick \u00a0JI, Brett \u00a0EM, Garber \u00a0AJ, Hurley \u00a0DL, Jastreboff \u00a0AM, et al. \u00a0American Association of Clinical Endocrinologists and American College of Endocrinology comprehensive clinical practice guidelines for medical care of patients with obesity. Endocr Pract \u00a02016;22:1\u2013203.", "targetReference": {"identifier": {"system": "https://pubmed.ncbi.nlm.nih.gov", "value": "27219496", "assigner": {"display": "NLM"}}, "reference": "https://pubmed.ncbi.nlm.nih.gov/27219496/"}}, {"type": "cites", "classifier": [{"coding": [{"system": "http://hl7.org/fhir/citation-artifact-classifier", "code": "D016428", "display": "Journal Article"}]}], "citation": "Buchwald \u00a0H, Varco \u00a0RL. A bypass operation for obese hyperlipidemic patients. Surgery \u00a01971;70:62\u201370.", "targetReference": {"identifier": {"system": "https://pubmed.ncbi.nlm.nih.gov", "value": "5092117", "assigner": {"display": "NLM"}}, "reference": "https://pubmed.ncbi.nlm.nih.gov/5092117/"}}, {"type": "cites", "classifier": [{"coding": [{"system": "http://hl7.org/fhir/citation-artifact-classifier", "code": "D016428", "display": "Journal Article"}]}], "citation": "van Veldhuisen \u00a0SL, Arslan \u00a0I, Deden \u00a0LN, Aarts \u00a0EO, Hazebroek \u00a0EJ. Safety of continuous postoperative pulse oximetry monitoring without obstructive sleep apnea screening in >5000 patients undergoing bariatric surgery. Obes Surg \u00a02020;30:1079\u20131085.", "targetReference": {"identifier": {"system": "https://pubmed.ncbi.nlm.nih.gov", "value": "31760605", "assigner": {"display": "NLM"}}, "reference": "https://pubmed.ncbi.nlm.nih.gov/31760605/"}}, {"type": "cites", "classifier": [{"coding": [{"system": "http://hl7.org/fhir/citation-artifact-classifier", "code": "D016428", "display": "Journal Article"}]}], "citation": "Gero \u00a0D, Raptis \u00a0DA, Vleeschouwers \u00a0W, van Veldhuisen \u00a0SL, Martin \u00a0AS, Xiao \u00a0Y, et al. \u00a0Defining global benchmarks in bariatric surgery: a retrospective multicenter analysis of minimally invasive Roux-en-Y gastric bypass and sleeve gastrectomy. Ann Surg \u00a02019;270:859\u2013867.", "targetReference": {"identifier": {"system": "https://pubmed.ncbi.nlm.nih.gov", "value": "31592894", "assigner": {"display": "NLM"}}, "reference": "https://pubmed.ncbi.nlm.nih.gov/31592894/"}}, {"type": "cites", "classifier": [{"coding": [{"system": "http://hl7.org/fhir/citation-artifact-classifier", "code": "D016428", "display": "Journal Article"}]}], "citation": "McTigue \u00a0KM, Wellman \u00a0R, Nauman \u00a0E, Anau \u00a0J, Coley \u00a0RY, Odor \u00a0A, et al. \u00a0Comparing the 5-year diabetes outcomes of sleeve gastrectomy and gastric bypass: the National Patient-Centered Clinical Research Network (PCORNet) bariatric study. JAMA Surg \u00a02020;155:e200087.", "targetReference": {"identifier": {"system": "https://pubmed.ncbi.nlm.nih.gov", "value": "32129809", "assigner": {"display": "NLM"}}, "reference": "https://pubmed.ncbi.nlm.nih.gov/32129809/"}}, {"type": "cites", "classifier": [{"coding": [{"system": "http://hl7.org/fhir/citation-artifact-classifier", "code": "D016428", "display": "Journal Article"}]}], "citation": "Vest \u00a0AR, Heneghan \u00a0HM, Schauer \u00a0PR, Young \u00a0JB. Surgical management of obesity and the relationship to cardiovascular disease. Circulation \u00a02013;127:945\u2013959.", "targetReference": {"identifier": {"system": "https://pubmed.ncbi.nlm.nih.gov", "value": "23439447", "assigner": {"display": "NLM"}}, "reference": "https://pubmed.ncbi.nlm.nih.gov/23439447/"}}, {"type": "cites", "classifier": [{"coding": [{"system": "http://hl7.org/fhir/citation-artifact-classifier", "code": "D016428", "display": "Journal Article"}]}], "citation": "Zhou \u00a0X, Yu \u00a0J, Li \u00a0L, Gloy \u00a0VL, Nordmann \u00a0A, Tiboni \u00a0M, et al. \u00a0Effects of bariatric surgery on mortality, cardiovascular events, and cancer outcomes in obese patients: systematic review and meta-analysis. Obes Surg \u00a02016;26:2590\u20132601.", "targetReference": {"identifier": {"system": "https://pubmed.ncbi.nlm.nih.gov", "value": "26992897", "assigner": {"display": "NLM"}}, "reference": "https://pubmed.ncbi.nlm.nih.gov/26992897/"}}, {"type": "cites", "classifier": [{"coding": [{"system": "http://hl7.org/fhir/citation-artifact-classifier", "code": "D016428", "display": "Journal Article"}]}], "citation": "Wiggins \u00a0T, Guidozzi \u00a0N, Welbourn \u00a0R, Ahmed \u00a0AR, Markar \u00a0SR. Association of bariatric surgery with all-cause mortality and incidence of obesity-related disease at a population level: a systematic review and meta-analysis. PLoS Med \u00a02020;17:e1003206.", "targetReference": {"identifier": {"system": "https://pubmed.ncbi.nlm.nih.gov", "value": "32722673", "assigner": {"display": "NLM"}}, "reference": "https://pubmed.ncbi.nlm.nih.gov/32722673/"}}, {"type": "cites", "classifier": [{"coding": [{"system": "http://hl7.org/fhir/citation-artifact-classifier", "code": "D016428", "display": "Journal Article"}]}], "citation": "Pontiroli \u00a0AE, Ceriani \u00a0V, Tagliabue \u00a0E. Compared with controls, bariatric surgery prevents long-term mortality in persons with obesity only above median age of cohorts: a systematic review and meta-analysis. Obes Surg \u00a02020;30:2487\u20132496.", "targetReference": {"identifier": {"system": "https://pubmed.ncbi.nlm.nih.gov", "value": "32152843", "assigner": {"display": "NLM"}}, "reference": "https://pubmed.ncbi.nlm.nih.gov/32152843/"}}, {"type": "cites", "classifier": [{"coding": [{"system": "http://hl7.org/fhir/citation-artifact-classifier", "code": "D016428", "display": "Journal Article"}]}], "citation": "Cardoso \u00a0L, Rodrigues \u00a0D, Gomes \u00a0L, Carrilho \u00a0F. Short- and long-term mortality after bariatric surgery: a systematic review and meta-analysis. Diabetes Obes Metab \u00a02017;19:1223\u20131232.", "targetReference": {"identifier": {"system": "https://pubmed.ncbi.nlm.nih.gov", "value": "28244626", "assigner": {"display": "NLM"}}, "reference": "https://pubmed.ncbi.nlm.nih.gov/28244626/"}}, {"type": "cites", "classifier": [{"coding": [{"system": "http://hl7.org/fhir/citation-artifact-classifier", "code": "D016428", "display": "Journal Article"}]}], "citation": "Page \u00a0MJ, McKenzie \u00a0JE, Bossuyt \u00a0PM, Boutron \u00a0I, Hoffmann \u00a0TC, Mulrow \u00a0CD, et al. \u00a0The PRISMA 2020 statement: an updated guideline for reporting systematic reviews. BMJ \u00a02021;372:n71.", "targetReference": {"identifier": {"system": "https://pubmed.ncbi.nlm.nih.gov", "value": "33782057", "assigner": {"display": "NLM"}}, "reference": "https://pubmed.ncbi.nlm.nih.gov/33782057/"}}, {"type": "cites", "classifier": [{"coding": [{"system": "http://hl7.org/fhir/citation-artifact-classifier", "code": "D016428", "display": "Journal Article"}]}], "citation": "Guyatt \u00a0GH, Oxman \u00a0AD, Vist \u00a0GE, Kunz \u00a0R, Falck-Ytter \u00a0Y, Alonso-Coello \u00a0P, et al. \u00a0GRADE: an emerging consensus on rating quality of evidence and strength of recommendations. BMJ \u00a02008;336:924\u2013926.", "targetReference": {"identifier": {"system": "https://pubmed.ncbi.nlm.nih.gov", "value": "18436948", "assigner": {"display": "NLM"}}, "reference": "https://pubmed.ncbi.nlm.nih.gov/18436948/"}}, {"type": "cites", "classifier": [{"coding": [{"system": "http://hl7.org/fhir/citation-artifact-classifier", "code": "D016428", "display": "Journal Article"}]}], "citation": "IntHout \u00a0J, Ioannidis \u00a0JP, Borm \u00a0GF. The Hartung-Knapp-Sidik-Jonkman method for random effects meta-analysis is straightforward and considerably outperforms the standard DerSimonian-Laird method. BMC Med Res Methodol \u00a02014;14:25.", "targetReference": {"identifier": {"system": "https://pubmed.ncbi.nlm.nih.gov", "value": "24548571", "assigner": {"display": "NLM"}}, "reference": "https://pubmed.ncbi.nlm.nih.gov/24548571/"}}, {"type": "cites", "classifier": [{"coding": [{"system": "http://hl7.org/fhir/citation-artifact-classifier", "code": "D016428", "display": "Journal Article"}]}], "citation": "Higgins \u00a0JP, Thompson \u00a0SG. Quantifying heterogeneity in a meta-analysis. Stat Med \u00a02002;21:1539\u20131558.", "targetReference": {"identifier": {"system": "https://pubmed.ncbi.nlm.nih.gov", "value": "12111919", "assigner": {"display": "NLM"}}, "reference": "https://pubmed.ncbi.nlm.nih.gov/12111919/"}}, {"type": "cites", "classifier": [{"coding": [{"system": "http://hl7.org/fhir/citation-artifact-classifier", "code": "D016428", "display": "Journal Article"}]}], "citation": "Egger \u00a0M, Davey Smith \u00a0G, Schneider \u00a0M, Minder \u00a0C. Bias in meta-analysis detected by a simple, graphical test. BMJ \u00a01997;315:629\u2013634.", "targetReference": {"identifier": {"system": "https://pubmed.ncbi.nlm.nih.gov", "value": "9310563", "assigner": {"display": "NLM"}}, "reference": "https://pubmed.ncbi.nlm.nih.gov/9310563/"}}, {"type": "cites", "classifier": [{"coding": [{"system": "http://hl7.org/fhir/citation-artifact-classifier", "code": "D016428", "display": "Journal Article"}]}], "citation": "Ioannidis \u00a0JP, Trikalinos \u00a0TA. The appropriateness of asymmetry tests for publication bias in meta-analyses: a large survey. CMAJ \u00a02007;176:1091\u20131096.", "targetReference": {"identifier": {"system": "https://pubmed.ncbi.nlm.nih.gov", "value": "17420491", "assigner": {"display": "NLM"}}, "reference": "https://pubmed.ncbi.nlm.nih.gov/17420491/"}}, {"type": "cites", "classifier": [{"coding": [{"system": "http://hl7.org/fhir/citation-artifact-classifier", "code": "D016428", "display": "Journal Article"}]}], "citation": "Adams \u00a0TD, Gress \u00a0RE, Smith \u00a0SC, Halverson \u00a0RC, Simper \u00a0SC, Rosamond \u00a0WD, et al. \u00a0Long-term mortality after gastric bypass surgery. N Eng J Med \u00a02007;357:753\u2013761.", "targetReference": {"identifier": {"system": "https://pubmed.ncbi.nlm.nih.gov", "value": "17715409", "assigner": {"display": "NLM"}}, "reference": "https://pubmed.ncbi.nlm.nih.gov/17715409/"}}, {"type": "cites", "classifier": [{"coding": [{"system": "http://hl7.org/fhir/citation-artifact-classifier", "code": "D016428", "display": "Journal Article"}]}], "citation": "Alkharaiji \u00a0M, Anyanwagu \u00a0U, Donnelly \u00a0R, Idris \u00a0I. Effect of bariatric surgery on cardiovascular events and metabolic outcomes in obese patients with insulin-treated type 2 diabetes: a retrospective cohort study. Obes Surg \u00a02019;29:3154\u20133164.", "targetReference": {"identifier": {"system": "https://pubmed.ncbi.nlm.nih.gov", "value": "31392579", "assigner": {"display": "NLM"}}, "reference": "https://pubmed.ncbi.nlm.nih.gov/31392579/"}}, {"type": "cites", "classifier": [{"coding": [{"system": "http://hl7.org/fhir/citation-artifact-classifier", "code": "D016428", "display": "Journal Article"}]}], "citation": "Aminian \u00a0A, Zajichek \u00a0A, Arterburn \u00a0DE, Wolski \u00a0KE, Brethauer \u00a0SA, Schauer \u00a0PR, et al. \u00a0Association of metabolic surgery with major adverse cardiovascular outcomes in patients with type 2 diabetes and obesity. JAMA \u00a02019;322:1271\u20131282.", "targetReference": {"identifier": {"system": "https://pubmed.ncbi.nlm.nih.gov", "value": "31475297", "assigner": {"display": "NLM"}}, "reference": "https://pubmed.ncbi.nlm.nih.gov/31475297/"}}, {"type": "cites", "classifier": [{"coding": [{"system": "http://hl7.org/fhir/citation-artifact-classifier", "code": "D016428", "display": "Journal Article"}]}], "citation": "Ardissino \u00a0M, Watson \u00a0F, Amin \u00a0R, Collins \u00a0P, Moussa \u00a0O, Purkayastha \u00a0S, et al. \u00a0Atherosclerotic disease burden after bariatric surgery in patients with obesity and type 2 diabetes. J Diabetes \u00a02021;13:640\u2013647.", "targetReference": {"identifier": {"system": "https://pubmed.ncbi.nlm.nih.gov", "value": "33377309", "assigner": {"display": "NLM"}}, "reference": "https://pubmed.ncbi.nlm.nih.gov/33377309/"}}, {"type": "cites", "classifier": [{"coding": [{"system": "http://hl7.org/fhir/citation-artifact-classifier", "code": "D016428", "display": "Journal Article"}]}], "citation": "Arterburn \u00a0D, Bogart \u00a0A, Coleman \u00a0KJ, Haneuse \u00a0S, Selby \u00a0JV, Sherwood \u00a0NE, et al. \u00a0Comparative effectiveness of bariatric surgery vs. nonsurgical treatment of type 2 diabetes among severely obese adults. Obes Res Clin Pract \u00a02013;7:e258\u2013e268.", "targetReference": {"identifier": {"system": "https://pubmed.ncbi.nlm.nih.gov", "value": "24306153", "assigner": {"display": "NLM"}}, "reference": "https://pubmed.ncbi.nlm.nih.gov/24306153/"}}, {"type": "cites", "classifier": [{"coding": [{"system": "http://hl7.org/fhir/citation-artifact-classifier", "code": "D016428", "display": "Journal Article"}]}], "citation": "Arterburn \u00a0DE, Olsen \u00a0MK, Smith \u00a0VA, Livingston \u00a0EH, Van Scoyoc \u00a0L, Yancy \u00a0WS \u00a0Jr, et al. \u00a0Association between bariatric surgery and long-term survival. JAMA \u00a02015;313:62\u201370.", "targetReference": {"identifier": {"system": "https://pubmed.ncbi.nlm.nih.gov", "value": "25562267", "assigner": {"display": "NLM"}}, "reference": "https://pubmed.ncbi.nlm.nih.gov/25562267/"}}, {"type": "cites", "classifier": [{"coding": [{"system": "http://hl7.org/fhir/citation-artifact-classifier", "code": "D016428", "display": "Journal Article"}]}], "citation": "Benotti \u00a0PN, Wood \u00a0GC, Carey \u00a0DJ, Mehra \u00a0VC, Mirshahi \u00a0T, Lent \u00a0MR, et al. \u00a0Gastric bypass surgery produces a durable reduction in cardiovascular disease risk factors and reduces the long-term risks of congestive heart failure. J Am Heart Assoc \u00a02017;6:e005126.", "targetReference": {"identifier": {"system": "https://pubmed.ncbi.nlm.nih.gov", "value": "28536154", "assigner": {"display": "NLM"}}, "reference": "https://pubmed.ncbi.nlm.nih.gov/28536154/"}}, {"type": "cites", "classifier": [{"coding": [{"system": "http://hl7.org/fhir/citation-artifact-classifier", "code": "D016428", "display": "Journal Article"}]}], "citation": "Brown \u00a0AM, Yang \u00a0J, Zhang \u00a0X, Docimo \u00a0S, Pryor \u00a0AD, Spaniolas \u00a0K. Bariatric surgery lowers the risk of major cardiovascular events. Ann Surg \u00a02020; 10.1097/SLA.0000000000004640", "targetReference": {"identifier": {"system": "https://pubmed.ncbi.nlm.nih.gov", "value": "33214477", "assigner": {"display": "NLM"}}, "reference": "https://pubmed.ncbi.nlm.nih.gov/33214477/"}}, {"type": "cites", "classifier": [{"coding": [{"system": "http://hl7.org/fhir/citation-artifact-classifier", "code": "D016428", "display": "Journal Article"}]}], "citation": "Busetto \u00a0L, Mirabelli \u00a0D, Petroni \u00a0ML, Mazza \u00a0M, Favretti \u00a0F, Segato \u00a0G, et al. \u00a0Comparative long-term mortality after laparoscopic adjustable gastric banding versus nonsurgical controls. Surg Obes Relat Dis \u00a02007;3:496\u2013502.", "targetReference": {"identifier": {"system": "https://pubmed.ncbi.nlm.nih.gov", "value": "17903768", "assigner": {"display": "NLM"}}, "reference": "https://pubmed.ncbi.nlm.nih.gov/17903768/"}}, {"type": "cites", "classifier": [{"coding": [{"system": "http://hl7.org/fhir/citation-artifact-classifier", "code": "D016428", "display": "Journal Article"}]}], "citation": "Courcoulas \u00a0AP, Johnson \u00a0E, Arterburn \u00a0DE, Haneuse \u00a0S, Herrinton \u00a0LJ, Fisher \u00a0DP, et al. \u00a0Reduction in long-term mortality after sleeve gastrectomy and gastric bypass compared to non-surgical patients with severe obesity. Ann Surg \u00a02021; 10.1097/SLA.0000000000005155", "targetReference": {"identifier": {"system": "https://pubmed.ncbi.nlm.nih.gov", "value": "34387200", "assigner": {"display": "NLM"}}, "reference": "https://pubmed.ncbi.nlm.nih.gov/34387200/"}}, {"type": "cites", "classifier": [{"coding": [{"system": "http://hl7.org/fhir/citation-artifact-classifier", "code": "D016428", "display": "Journal Article"}]}], "citation": "Douglas \u00a0IJ, Bhaskaran \u00a0K, Batterham \u00a0RL, Smeeth \u00a0L. Bariatric surgery in the United Kingdom: a cohort study of weight loss and clinical outcomes in routine clinical care. PLoS Med \u00a02015;12:e1001925.", "targetReference": {"identifier": {"system": "https://pubmed.ncbi.nlm.nih.gov", "value": "26694640", "assigner": {"display": "NLM"}}, "reference": "https://pubmed.ncbi.nlm.nih.gov/26694640/"}}, {"type": "cites", "classifier": [{"coding": [{"system": "http://hl7.org/fhir/citation-artifact-classifier", "code": "D016428", "display": "Journal Article"}]}], "citation": "Doumouras \u00a0AG, Hong \u00a0D, Lee \u00a0Y, Tarride \u00a0JE, Paterson \u00a0JM, Anvari \u00a0M. Association between bariatric surgery and all-cause mortality: a population-based matched cohort study in a universal health care system. Ann Intern Med \u00a02020;173:694\u2013703.", "targetReference": {"identifier": {"system": "https://pubmed.ncbi.nlm.nih.gov", "value": "32805135", "assigner": {"display": "NLM"}}, "reference": "https://pubmed.ncbi.nlm.nih.gov/32805135/"}}, {"type": "cites", "classifier": [{"coding": [{"system": "http://hl7.org/fhir/citation-artifact-classifier", "code": "D016428", "display": "Journal Article"}]}], "citation": "Eliasson \u00a0B, Liakopoulos \u00a0V, Franzen \u00a0S, Naslund \u00a0I, Svensson \u00a0AM, Ottosson \u00a0J, et al. \u00a0Cardiovascular disease and mortality in patients with type 2 diabetes after bariatric surgery in Sweden: a nationwide, matched, observational cohort study. Lancet Diabetes Endocrinol \u00a02015;3:847\u2013854.", "targetReference": {"identifier": {"system": "https://pubmed.ncbi.nlm.nih.gov", "value": "26429401", "assigner": {"display": "NLM"}}, "reference": "https://pubmed.ncbi.nlm.nih.gov/26429401/"}}, {"type": "cites", "classifier": [{"coding": [{"system": "http://hl7.org/fhir/citation-artifact-classifier", "code": "D016428", "display": "Journal Article"}]}], "citation": "Fisher \u00a0DP, Johnson \u00a0E, Haneuse \u00a0S, Arterburn \u00a0D, Coleman \u00a0KJ, O\u2019Connor \u00a0PJ, et al. \u00a0Association between bariatric surgery and macrovascular disease outcomes in patients with type 2 diabetes and severe obesity. JAMA \u00a02018;320:1570\u20131582.", "targetReference": {"identifier": {"system": "https://pubmed.ncbi.nlm.nih.gov", "value": "30326126", "assigner": {"display": "NLM"}}, "reference": "https://pubmed.ncbi.nlm.nih.gov/30326126/"}}, {"type": "cites", "classifier": [{"coding": [{"system": "http://hl7.org/fhir/citation-artifact-classifier", "code": "D016428", "display": "Journal Article"}]}], "citation": "Lent \u00a0MR, Benotti \u00a0PN, Mirshahi \u00a0T, Gerhard \u00a0GS, Strodel \u00a0WE, Petrick \u00a0AT, et al. \u00a0All-cause and specific-cause mortality risk after Roux-en-Y gastric bypass in patients with and without diabetes. Diabetes Care \u00a02017;40:1379\u20131385.", "targetReference": {"identifier": {"system": "https://pubmed.ncbi.nlm.nih.gov", "value": "28760742", "assigner": {"display": "NLM"}}, "reference": "https://pubmed.ncbi.nlm.nih.gov/28760742/"}}, {"type": "cites", "classifier": [{"coding": [{"system": "http://hl7.org/fhir/citation-artifact-classifier", "code": "D016428", "display": "Journal Article"}]}], "citation": "Lynch \u00a0KT, Mehaffey \u00a0JH, Hawkins \u00a0RB, Hassinger \u00a0TE, Hallowell \u00a0PT, Kirby \u00a0JL. Bariatric surgery reduces incidence of atrial fibrillation: a propensity score-matched analysis. Surg Obes Relat Dis \u00a02019;15:279\u2013285.", "targetReference": {"identifier": {"system": "https://pubmed.ncbi.nlm.nih.gov", "value": "30611665", "assigner": {"display": "NLM"}}, "reference": "https://pubmed.ncbi.nlm.nih.gov/30611665/"}}, {"type": "cites", "classifier": [{"coding": [{"system": "http://hl7.org/fhir/citation-artifact-classifier", "code": "D016428", "display": "Journal Article"}]}], "citation": "MacDonald \u00a0KG \u00a0Jr, Long \u00a0SD, Swanson \u00a0MS, Brown \u00a0BM, Morris \u00a0P, Dohm \u00a0GL, et al. \u00a0The gastric bypass operation reduces the progression and mortality of non-insulin-dependent diabetes mellitus. J Gastrointest Surg \u00a01997;1:213\u2013220.", "targetReference": {"identifier": {"system": "https://pubmed.ncbi.nlm.nih.gov", "value": "9834350", "assigner": {"display": "NLM"}}, "reference": "https://pubmed.ncbi.nlm.nih.gov/9834350/"}}, {"type": "cites", "classifier": [{"coding": [{"system": "http://hl7.org/fhir/citation-artifact-classifier", "code": "D016428", "display": "Journal Article"}]}], "citation": "Michaels \u00a0AD, Mehaffey \u00a0JH, Hawkins \u00a0RB, Kern \u00a0JA, Schirmer \u00a0BD, Hallowell \u00a0PT. Bariatric surgery reduces long-term rates of cardiac events and need for coronary revascularization: a propensity-matched analysis. Surg Endosc \u00a02020;34:2638\u20132643.", "targetReference": {"identifier": {"system": "https://pubmed.ncbi.nlm.nih.gov", "value": "31376005", "assigner": {"display": "NLM"}}, "reference": "https://pubmed.ncbi.nlm.nih.gov/31376005/"}}, {"type": "cites", "classifier": [{"coding": [{"system": "http://hl7.org/fhir/citation-artifact-classifier", "code": "D016428", "display": "Journal Article"}]}], "citation": "Perry \u00a0CD, Hutter \u00a0MM, Smith \u00a0DB, Newhouse \u00a0JP, McNeil \u00a0BJ. Survival and changes in comorbidities after bariatric surgery. Ann Surg \u00a02008;247:21\u201327.", "targetReference": {"identifier": {"system": "https://pubmed.ncbi.nlm.nih.gov", "value": "18156918", "assigner": {"display": "NLM"}}, "reference": "https://pubmed.ncbi.nlm.nih.gov/18156918/"}}, {"type": "cites", "classifier": [{"coding": [{"system": "http://hl7.org/fhir/citation-artifact-classifier", "code": "D016428", "display": "Journal Article"}]}], "citation": "Pontiroli \u00a0AE, Ceriani \u00a0V, Tagliabue \u00a0E, Zakaria \u00a0AS, Veronelli \u00a0A, Folli \u00a0F, et al. \u00a0Bariatric surgery, compared to medical treatment, reduces morbidity at all ages but does not reduce mortality in patients aged <43 years, especially if diabetes mellitus is present: a post hoc analysis of two retrospective cohort studies. Acta Diabetol \u00a02020;57:323\u2013333.", "targetReference": {"identifier": {"system": "https://pubmed.ncbi.nlm.nih.gov", "value": "31598798", "assigner": {"display": "NLM"}}, "reference": "https://pubmed.ncbi.nlm.nih.gov/31598798/"}}, {"type": "cites", "classifier": [{"coding": [{"system": "http://hl7.org/fhir/citation-artifact-classifier", "code": "D016428", "display": "Journal Article"}]}], "citation": "Ceriani \u00a0V, Sarro \u00a0G, Micheletto \u00a0G, Giovanelli \u00a0A, Zakaria \u00a0AS, Fanchini \u00a0M, et al. \u00a0Long-term mortality in obese subjects undergoing malabsorptive surgery (biliopancreatic diversion and biliointestinal bypass) versus medical treatment. Int J Obes (Lond) \u00a02019;43:1147\u20131153.", "targetReference": {"identifier": {"system": "https://pubmed.ncbi.nlm.nih.gov", "value": "30470806", "assigner": {"display": "NLM"}}, "reference": "https://pubmed.ncbi.nlm.nih.gov/30470806/"}}, {"type": "cites", "classifier": [{"coding": [{"system": "http://hl7.org/fhir/citation-artifact-classifier", "code": "D016428", "display": "Journal Article"}]}], "citation": "Rassen \u00a0JA, Murk \u00a0W, Schneeweiss \u00a0S. Real-world evidence of bariatric surgery and cardiovascular benefits using electronic health records data: a lesson in bias. Diabetes Obes Metab \u00a02021;23:1453\u20131462.", "targetReference": {"identifier": {"system": "https://pubmed.ncbi.nlm.nih.gov", "value": "33566434", "assigner": {"display": "NLM"}}, "reference": "https://pubmed.ncbi.nlm.nih.gov/33566434/"}}, {"type": "cites", "classifier": [{"coding": [{"system": "http://hl7.org/fhir/citation-artifact-classifier", "code": "D016428", "display": "Journal Article"}]}], "citation": "Reges \u00a0O, Greenland \u00a0P, Dicker \u00a0D, Leibowitz \u00a0M, Hoshen \u00a0M, Gofer \u00a0I, et al. \u00a0Association of bariatric surgery using laparoscopic banding, Roux-en-Y gastric bypass, or laparoscopic sleeve gastrectomy vs usual care obesity management with all-cause mortality. JAMA \u00a02018;319:279\u2013290.", "targetReference": {"identifier": {"system": "https://pubmed.ncbi.nlm.nih.gov", "value": "29340677", "assigner": {"display": "NLM"}}, "reference": "https://pubmed.ncbi.nlm.nih.gov/29340677/"}}, {"type": "cites", "classifier": [{"coding": [{"system": "http://hl7.org/fhir/citation-artifact-classifier", "code": "D016428", "display": "Journal Article"}]}], "citation": "Sampalis \u00a0JS, Sampalis \u00a0F, Christou \u00a0N. Impact of bariatric surgery on cardiovascular and musculoskeletal morbidity. Surg Obes Relat Dis \u00a02006;2:587\u2013591.", "targetReference": {"identifier": {"system": "https://pubmed.ncbi.nlm.nih.gov", "value": "16996318", "assigner": {"display": "NLM"}}, "reference": "https://pubmed.ncbi.nlm.nih.gov/16996318/"}}, {"type": "cites", "classifier": [{"coding": [{"system": "http://hl7.org/fhir/citation-artifact-classifier", "code": "D016428", "display": "Journal Article"}]}], "citation": "Singh \u00a0P, Subramanian \u00a0A, Adderley \u00a0N, Gokhale \u00a0K, Singhal \u00a0R, Bellary \u00a0S, et al. \u00a0Impact of bariatric surgery on cardiovascular outcomes and mortality: a population-based cohort study. Br J Surg \u00a02020;107:432\u2013442.", "targetReference": {"identifier": {"system": "https://pubmed.ncbi.nlm.nih.gov", "value": "31965568", "assigner": {"display": "NLM"}}, "reference": "https://pubmed.ncbi.nlm.nih.gov/31965568/"}}, {"type": "cites", "classifier": [{"coding": [{"system": "http://hl7.org/fhir/citation-artifact-classifier", "code": "D016428", "display": "Journal Article"}]}], "citation": "Thereaux \u00a0J, Lesuffleur \u00a0T, Czernichow \u00a0S, Basdevant \u00a0A, Msika \u00a0S, Nocca \u00a0D, et al. \u00a0Long-term adverse events after sleeve gastrectomy or gastric bypass: a 7-year nationwide, observational, population-based, cohort study. Lancet Diabetes Endocrinol \u00a02019;7:786\u2013795.", "targetReference": {"identifier": {"system": "https://pubmed.ncbi.nlm.nih.gov", "value": "31383618", "assigner": {"display": "NLM"}}, "reference": "https://pubmed.ncbi.nlm.nih.gov/31383618/"}}, {"type": "cites", "classifier": [{"coding": [{"system": "http://hl7.org/fhir/citation-artifact-classifier", "code": "D016428", "display": "Journal Article"}]}], "citation": "Wong \u00a0CKH, Wu \u00a0T, Wong \u00a0SKH, Law \u00a0BTT, Grieve \u00a0E, Ng \u00a0EKW, et al. \u00a0Effects of bariatric surgery on kidney diseases, cardiovascular diseases, mortality and severe hypoglycaemia among patients with Type 2 diabetes mellitus. Nephrol Dial Transplant \u00a02021;36:1440\u20131451.", "targetReference": {"identifier": {"system": "https://pubmed.ncbi.nlm.nih.gov", "value": "32591819", "assigner": {"display": "NLM"}}, "reference": "https://pubmed.ncbi.nlm.nih.gov/32591819/"}}, {"type": "cites", "classifier": [{"coding": [{"system": "http://hl7.org/fhir/citation-artifact-classifier", "code": "D016428", "display": "Journal Article"}]}], "citation": "Carlsson \u00a0LMS, Sjoholm \u00a0K, Jacobson \u00a0P, Andersson-Assarsson \u00a0JC, Svensson \u00a0PA, Taube \u00a0M, et al. \u00a0Life expectancy after bariatric surgery in the Swedish obese subjects study. N Eng J Med \u00a02020;383:1535\u20131543.", "targetReference": {"identifier": {"system": "https://pubmed.ncbi.nlm.nih.gov", "value": "33053284", "assigner": {"display": "NLM"}}, "reference": "https://pubmed.ncbi.nlm.nih.gov/33053284/"}}, {"type": "cites", "classifier": [{"coding": [{"system": "http://hl7.org/fhir/citation-artifact-classifier", "code": "D016428", "display": "Journal Article"}]}], "citation": "Hoskuldsdottir \u00a0G, Sattar \u00a0N, Miftaraj \u00a0M, Naslund \u00a0I, Ottosson \u00a0J, Franzen \u00a0S, et al. \u00a0Potential effects of bariatric surgery on the incidence of heart failure and atrial fibrillation in patients with type 2 diabetes mellitus and obesity and on mortality in patients with preexisting heart failure: a nationwide, matched, observational cohort study. J Am Heart Assoc \u00a02021;10:e019323.", "targetReference": {"identifier": {"system": "https://pubmed.ncbi.nlm.nih.gov", "value": "33754795", "assigner": {"display": "NLM"}}, "reference": "https://pubmed.ncbi.nlm.nih.gov/33754795/"}}, {"type": "cites", "classifier": [{"coding": [{"system": "http://hl7.org/fhir/citation-artifact-classifier", "code": "D016428", "display": "Journal Article"}]}], "citation": "Jamaly \u00a0S, Carlsson \u00a0L, Peltonen \u00a0M, Jacobson \u00a0P, Karason \u00a0K. Surgical obesity treatment and the risk of heart failure. Eur Heart J \u00a02019;40:2131\u20132138.", "targetReference": {"identifier": {"system": "https://pubmed.ncbi.nlm.nih.gov", "value": "31089682", "assigner": {"display": "NLM"}}, "reference": "https://pubmed.ncbi.nlm.nih.gov/31089682/"}}, {"type": "cites", "classifier": [{"coding": [{"system": "http://hl7.org/fhir/citation-artifact-classifier", "code": "D016428", "display": "Journal Article"}]}], "citation": "Jamaly \u00a0S, Carlsson \u00a0L, Peltonen \u00a0M, Jacobson \u00a0P, Sj\u00f6str\u00f6m \u00a0L, Karason \u00a0K. Bariatric surgery and the risk of new-onset atrial fibrillation in Swedish obese subjects. J Am Coll Cardiol \u00a02016;68:2497\u20132504.", "targetReference": {"identifier": {"system": "https://pubmed.ncbi.nlm.nih.gov", "value": "27931605", "assigner": {"display": "NLM"}}, "reference": "https://pubmed.ncbi.nlm.nih.gov/27931605/"}}, {"type": "cites", "classifier": [{"coding": [{"system": "http://hl7.org/fhir/citation-artifact-classifier", "code": "D016428", "display": "Journal Article"}]}], "citation": "Liakopoulos \u00a0V, Franzen \u00a0S, Svensson \u00a0AM, Miftaraj \u00a0M, Ottosson \u00a0J, Naslund \u00a0I, et al. \u00a0Pros and cons of gastric bypass surgery in individuals with obesity and type 2 diabetes: nationwide, matched, observational cohort study. BMJ Open \u00a02019;9:e023882.", "targetReference": {"identifier": {"system": "https://pubmed.ncbi.nlm.nih.gov", "value": "30782717", "assigner": {"display": "NLM"}}, "reference": "https://pubmed.ncbi.nlm.nih.gov/30782717/"}}, {"type": "cites", "classifier": [{"coding": [{"system": "http://hl7.org/fhir/citation-artifact-classifier", "code": "D016428", "display": "Journal Article"}]}], "citation": "Liakopoulos \u00a0V, Franzen \u00a0S, Svensson \u00a0AM, Sattar \u00a0N, Miftaraj \u00a0M, Bjorck \u00a0S, et al. \u00a0Renal and cardiovascular outcomes after weight loss from gastric bypass surgery in type 2 diabetes: cardiorenal risk reductions exceed atherosclerotic benefits. Diabetes Care \u00a02020;43:1276\u20131284.", "targetReference": {"identifier": {"system": "https://pubmed.ncbi.nlm.nih.gov", "value": "32152136", "assigner": {"display": "NLM"}}, "reference": "https://pubmed.ncbi.nlm.nih.gov/32152136/"}}, {"type": "cites", "classifier": [{"coding": [{"system": "http://hl7.org/fhir/citation-artifact-classifier", "code": "D016428", "display": "Journal Article"}]}], "citation": "Lundberg \u00a0CE, Bjorck \u00a0L, Adiels \u00a0M, Lagergren \u00a0J, Rosengren \u00a0A. Risk of myocardial infarction, ischemic stroke, and mortality in patients who undergo gastric bypass for obesity compared with non-operated obese patients and population controls. Ann Surg \u00a02021; 10.1097/SLA.0000000000005054", "targetReference": {"identifier": {"system": "https://pubmed.ncbi.nlm.nih.gov", "value": "34238816", "assigner": {"display": "NLM"}}, "reference": "https://pubmed.ncbi.nlm.nih.gov/34238816/"}}, {"type": "cites", "classifier": [{"coding": [{"system": "http://hl7.org/fhir/citation-artifact-classifier", "code": "D016428", "display": "Journal Article"}]}], "citation": "Moussa \u00a0O, Ardissino \u00a0M, Heaton \u00a0T, Tang \u00a0A, Khan \u00a0O, Ziprin \u00a0P, et al. \u00a0Effect of bariatric surgery on long-term cardiovascular outcomes: a nationwide nested cohort study. Eur Heart J \u00a02020;41:2660\u20132667.", "targetReference": {"identifier": {"system": "https://pubmed.ncbi.nlm.nih.gov", "value": "32188981", "assigner": {"display": "NLM"}}, "reference": "https://pubmed.ncbi.nlm.nih.gov/32188981/"}}, {"type": "cites", "classifier": [{"coding": [{"system": "http://hl7.org/fhir/citation-artifact-classifier", "code": "D016428", "display": "Journal Article"}]}], "citation": "Moussa \u00a0O, Ardissino \u00a0M, Tang \u00a0A, Edwards \u00a0J, Heaton \u00a0T, Khan \u00a0O, et al. \u00a0Long-term cerebrovascular outcomes after bariatric surgery: a nationwide cohort study. Clin Neurol Neurosurg \u00a02021;203:106560.", "targetReference": {"identifier": {"system": "https://pubmed.ncbi.nlm.nih.gov", "value": "33618173", "assigner": {"display": "NLM"}}, "reference": "https://pubmed.ncbi.nlm.nih.gov/33618173/"}}, {"type": "cites", "classifier": [{"coding": [{"system": "http://hl7.org/fhir/citation-artifact-classifier", "code": "D016428", "display": "Journal Article"}]}], "citation": "Sjostrom \u00a0L, Narbro \u00a0K, Sjostrom \u00a0CD, Karason \u00a0K, Larsson \u00a0B, Wedel \u00a0H, et al. \u00a0Effects of bariatric surgery on mortality in Swedish obese subjects. N Eng J Med \u00a02007;357:741\u2013752.", "targetReference": {"identifier": {"system": "https://pubmed.ncbi.nlm.nih.gov", "value": "17715408", "assigner": {"display": "NLM"}}, "reference": "https://pubmed.ncbi.nlm.nih.gov/17715408/"}}, {"type": "cites", "classifier": [{"coding": [{"system": "http://hl7.org/fhir/citation-artifact-classifier", "code": "D016428", "display": "Journal Article"}]}], "citation": "Sjostrom \u00a0L, Peltonen \u00a0M, Jacobson \u00a0P, Sjostrom \u00a0CD, Karason \u00a0K, Wedel \u00a0H, et al. \u00a0Bariatric surgery and long-term cardiovascular events. JAMA \u00a02012;307:56\u201365.", "targetReference": {"identifier": {"system": "https://pubmed.ncbi.nlm.nih.gov", "value": "22215166", "assigner": {"display": "NLM"}}, "reference": "https://pubmed.ncbi.nlm.nih.gov/22215166/"}}, {"type": "cites", "classifier": [{"coding": [{"system": "http://hl7.org/fhir/citation-artifact-classifier", "code": "D016428", "display": "Journal Article"}]}], "citation": "Sundstrom \u00a0J, Bruze \u00a0G, Ottosson \u00a0J, Marcus \u00a0C, Naslund \u00a0I, Neovius \u00a0M. Weight loss and heart failure: a nationwide study of gastric bypass surgery versus intensive lifestyle treatment. Circulation \u00a02017;135:1577\u20131585.", "targetReference": {"identifier": {"system": "https://pubmed.ncbi.nlm.nih.gov", "value": "28258170", "assigner": {"display": "NLM"}}, "reference": "https://pubmed.ncbi.nlm.nih.gov/28258170/"}}, {"type": "cites", "classifier": [{"coding": [{"system": "http://hl7.org/fhir/citation-artifact-classifier", "code": "D016428", "display": "Journal Article"}]}], "citation": "Arterburn \u00a0DE, Telem \u00a0DA, Kushner \u00a0RF, Courcoulas \u00a0AP. Benefits and risks of bariatric surgery in adults: a review. JAMA \u00a02020;324:879\u2013887.", "targetReference": {"identifier": {"system": "https://pubmed.ncbi.nlm.nih.gov", "value": "32870301", "assigner": {"display": "NLM"}}, "reference": "https://pubmed.ncbi.nlm.nih.gov/32870301/"}}, {"type": "cites", "classifier": [{"coding": [{"system": "http://hl7.org/fhir/citation-artifact-classifier", "code": "D016428", "display": "Journal Article"}]}], "citation": "Yoshino \u00a0M, Kayser \u00a0BD, Yoshino \u00a0J, Stein \u00a0RI, Reeds \u00a0D, Eagon \u00a0JC, et al. \u00a0Effects of diet versus gastric bypass on metabolic function in diabetes. N Engl J Med \u00a02020;383:721\u2013732.", "targetReference": {"identifier": {"system": "https://pubmed.ncbi.nlm.nih.gov", "value": "32813948", "assigner": {"display": "NLM"}}, "reference": "https://pubmed.ncbi.nlm.nih.gov/32813948/"}}, {"type": "cites", "classifier": [{"coding": [{"system": "http://hl7.org/fhir/citation-artifact-classifier", "code": "D016428", "display": "Journal Article"}]}], "citation": "Aminian \u00a0A, Zajichek \u00a0A, Tu \u00a0C, Wolski \u00a0KE, Brethauer \u00a0SA, Schauer \u00a0PR, et al. \u00a0How much weight loss is required for cardiovascular benefits? Insights from a metabolic surgery matched-cohort study. Ann Surg \u00a02020;272:639\u2013645.", "targetReference": {"identifier": {"system": "https://pubmed.ncbi.nlm.nih.gov", "value": "32932320", "assigner": {"display": "NLM"}}, "reference": "https://pubmed.ncbi.nlm.nih.gov/32932320/"}}, {"type": "cites", "classifier": [{"coding": [{"system": "http://hl7.org/fhir/citation-artifact-classifier", "code": "D016428", "display": "Journal Article"}]}], "citation": "Schauer \u00a0PR, Bhatt \u00a0DL, Kirwan \u00a0JP, Wolski \u00a0K, Aminian \u00a0A, Brethauer \u00a0SA, et al. \u00a0Bariatric surgery versus intensive medical therapy for diabetes \u2013 5-year outcomes. N Engl J Med \u00a02017;376:641\u2013651.", "targetReference": {"identifier": {"system": "https://pubmed.ncbi.nlm.nih.gov", "value": "28199805", "assigner": {"display": "NLM"}}, "reference": "https://pubmed.ncbi.nlm.nih.gov/28199805/"}}, {"type": "cites", "classifier": [{"coding": [{"system": "http://hl7.org/fhir/citation-artifact-classifier", "code": "D016428", "display": "Journal Article"}]}], "citation": "Visseren \u00a0FLJ, Mach \u00a0F, Smulders \u00a0YM, Carballo \u00a0D, Koskinas \u00a0KC, Back \u00a0M, et al. \u00a02021 ESC Guidelines on cardiovascular disease prevention in clinical practice. Eur Heart J \u00a02021;42:3227\u20133337.", "targetReference": {"identifier": {"system": "https://pubmed.ncbi.nlm.nih.gov", "value": "34458905", "assigner": {"display": "NLM"}}, "reference": "https://pubmed.ncbi.nlm.nih.gov/34458905/"}}, {"type": "cites", "classifier": [{"coding": [{"system": "http://hl7.org/fhir/citation-artifact-classifier", "code": "D016428", "display": "Journal Article"}]}], "citation": "Authors/Task Force Members, Piepoli \u00a0MF, Hoes \u00a0AW, Agewall \u00a0S, Albus \u00a0C, Brotons \u00a0C, et al. \u00a02016 European Guidelines on cardiovascular disease prevention in clinical practice: the Sixth Joint Task Force of the European Society of Cardiology and Other Societies on Cardiovascular Disease Prevention in Clinical Practice (constituted by representatives of 10 societies and by invited experts): developed with the special contribution of the European Association for Cardiovascular Prevention & Rehabilitation (EACPR). Eur Heart J \u00a02016;37:2315\u20132381.", "targetReference": {"identifier": {"system": "https://pubmed.ncbi.nlm.nih.gov", "value": "27222591", "assigner": {"display": "NLM"}}, "reference": "https://pubmed.ncbi.nlm.nih.gov/27222591/"}}, {"type": "cites", "classifier": [{"coding": [{"system": "http://hl7.org/fhir/citation-artifact-classifier", "code": "D016428", "display": "Journal Article"}]}], "citation": "Jensen \u00a0MD, Ryan \u00a0DH, Apovian \u00a0CM, Ard \u00a0JD, Comuzzie \u00a0AG, Donato \u00a0KA, et al. \u00a02013 AHA/ACC/TOS guideline for the management of overweight and obesity in adults: a report of the American College of Cardiology/American Heart Association Task Force on Practice Guidelines and The Obesity Society. J Am Coll Cardiol \u00a02014;63(Pt B):2985\u20133023.", "targetReference": {"identifier": {"system": "https://pubmed.ncbi.nlm.nih.gov", "value": "24239920", "assigner": {"display": "NLM"}}, "reference": "https://pubmed.ncbi.nlm.nih.gov/24239920/"}}, {"type": "cites", "classifier": [{"coding": [{"system": "http://hl7.org/fhir/citation-artifact-classifier", "code": "D016428", "display": "Journal Article"}]}], "citation": "Rubino \u00a0F, Nathan \u00a0DM, Eckel \u00a0RH, Schauer \u00a0PR, Alberti \u00a0KG, Zimmet \u00a0PZ, et al. \u00a0Metabolic surgery in the treatment algorithm for type 2 diabetes: a joint statement by international diabetes organizations. Diabetes Care \u00a02016;39:861\u2013877.", "targetReference": {"identifier": {"system": "https://pubmed.ncbi.nlm.nih.gov", "value": "27222544", "assigner": {"display": "NLM"}}, "reference": "https://pubmed.ncbi.nlm.nih.gov/27222544/"}}, {"type": "comment-in", "classifier": [{"coding": [{"system": "https://www.nlm.nih.gov/mesh", "code": "D016420", "display": "Comment", "userSelected": false}]}], "citation": "Eur Heart J. 2022 Mar 10;:", "targetReference": {"identifier": {"system": "https://pubmed.ncbi.nlm.nih.gov", "value": "35265989", "assigner": {"display": "NLM"}}, "reference": "https://pubmed.ncbi.nlm.nih.gov/35265989/"}}], "publicationForm": [{"publishedIn": {"type": {"coding": [{"system": "http://terminology.hl7.org/CodeSystem/published-in-type", "code": "D020492", "display": "Periodical"}]}, "identifier": [{"type": {"coding": [{"system": "https://www.nlm.nih.gov/bsd/licensee/elements_descriptions.html#issn", "code": "Electronic", "display": "Electronic"}], "text": "Electronic ISSN Type"}, "value": "1522-9645", "system": "https://portal.issn.org"}, {"type": {"text": "ISOAbbreviation", "coding": [{"system": "http://terminology.hl7.org/CodeSystem/v2-0203", "code": "XX", "display": "Organization identifier"}]}, "system": "https://www.issn.org/services/online-services/access-to-the-ltwa/", "value": "Eur Heart J"}, {"type": {"text": "ISSN Linking", "coding": [{"system": "http://terminology.hl7.org/CodeSystem/v2-0203", "code": "XX", "display": "Organization identifier"}]}, "system": "https://www.issn.org/understanding-the-issn/assignment-rules/the-issn-l-for-publications-on-multiple-media/", "value": "0195-668X"}, {"type": {"text": "Medline Title Abbreviation", "coding": [{"system": "http://terminology.hl7.org/CodeSystem/v2-0203", "code": "XX", "display": "Organization identifier"}]}, "system": "https://www.nlm.nih.gov/tsd/cataloging/contructitleabbre.html", "value": "Eur Heart J"}, {"type": {"text": "NLM Unique ID", "coding": [{"system": "http://terminology.hl7.org/CodeSystem/v2-0203", "code": "XX", "display": "Organization identifier"}]}, "system": "https://locatorplus.gov/cgi-bin/Pwebrecon.cgi?DB=local", "value": "8006263"}], "title": "European heart journal", "publisherLocation": "England"}, "citedMedium": {"coding": [{"system": "http://terminology.hl7.org/CodeSystem/cited-medium", "code": "internet", "display": "Internet"}]}, "volume": "43", "issue": "20", "articleDate": "2022-05-21", "language": [{"coding": [{"system": "urn:ietf:bcp:47", "code": "en", "display": "English"}]}], "pageString": "1955-1969"}], "webLocation": [{"classifier": [{"coding": [{"system": "http://terminology.hl7.org/CodeSystem/artifact-url-classifier", "code": "abstract", "display": "Abstract"}]}], "url": "https://pubmed.ncbi.nlm.nih.gov/35243488/"}, {"url": "https://doi.org/10.1093/eurheartj/ehac071", "classifier": [{"coding": [{"system": "http://terminology.hl7.org/CodeSystem/artifact-url-classifier", "code": "doi-based", "display": "DOI Based"}]}]}], "classification": [{"type": {"coding": [{"system": "http://terminology.hl7.org/CodeSystem/cited-artifact-classification-type", "code": "publishing-model", "display": "Publishing Model", "userSelected": false}]}, "classifier": [{"coding": [{"system": "http://terminology.hl7.org/CodeSystem/citation-artifact-classifier", "code": "Print", "display": "Print", "userSelected": false}]}]}, {"type": {"coding": [{"system": "http://terminology.hl7.org/CodeSystem/cited-artifact-classification-type", "code": "keyword", "display": "Keyword", "userSelected": false}]}, "artifactAssessment": [{"reference": "#keywords0", "type": "ArtifactAssessment", "display": "Keywords provided by NOTNLM"}]}, {"type": {"coding": [{"system": "http://terminology.hl7.org/CodeSystem/cited-artifact-classification-type", "code": "mesh-heading", "display": "MeSH Heading"}]}, "artifactAssessment": [{"reference": "#meshHeading0", "type": "ArtifactAssessment"}]}, {"type": {"coding": [{"system": "http://terminology.hl7.org/CodeSystem/cited-artifact-classification-type", "code": "publication-type", "display": "Publication Type"}]}, "classifier": [{"coding": [{"system": "https://www.nlm.nih.gov/mesh", "code": "D016428", "display": "Journal Article", "userSelected": false}]}, {"coding": [{"system": "https://www.nlm.nih.gov/mesh", "code": "D017418", "display": "Meta-Analysis", "userSelected": false}]}, {"coding": [{"system": "https://www.nlm.nih.gov/mesh", "code": "D000078182", "display": "Systematic Review", "userSelected": false}]}]}, {"type": {"coding": [{"system": "http://terminology.hl7.org/CodeSystem/cited-artifact-classification-type", "code": "knowledge-artifact-type", "display": "Knowledge Artifact Type", "userSelected": false}]}, "classifier": [{"coding": [{"system": "http://terminology.hl7.org/CodeSystem/citation-artifact-classifier", "code": "D016428", "display": "Journal Article", "userSelected": false}]}], "artifactAssessment": [{"display": "Classifier added by Computable Publishing LLC"}]}, {"type": {"coding": [{"system": "http://terminology.hl7.org/CodeSystem/cited-artifact-classification-type", "code": "citation-subset", "display": "Citation Subset", "userSelected": false}]}, "classifier": [{"coding": [{"system": "https://www.nlm.nih.gov/bsd/licensee/elements_descriptions.html#citationsubset", "code": "IM", "display": "IM", "userSelected": false}]}]}], "contributorship": {"entry": [{"contributor": {"reference": "#author0", "type": "Practitioner", "display": "van Veldhuisen SL"}, "forenameInitials": "SL", "affiliation": [{"display": "Department of Surgery/Vitalys Clinic, Rijnstate Hospital Arnhem, Arnhem, The Netherlands."}, {"display": "Department of Surgery, Amsterdam UMC, University of Amsterdam, Amsterdam, The Netherlands."}]}, {"contributor": {"reference": "#author1", "type": "Practitioner", "display": "Gorter TM"}, "forenameInitials": "TM", "affiliation": [{"display": "Department of Cardiology, University of Groningen, University Medical Centre Groningen, PO Box 30.001, 9700 RB Groningen, The Netherlands."}]}, {"contributor": {"reference": "#author2", "type": "Practitioner", "display": "van Woerden G"}, "forenameInitials": "G", "affiliation": [{"display": "Department of Cardiology, University of Groningen, University Medical Centre Groningen, PO Box 30.001, 9700 RB Groningen, The Netherlands."}]}, {"contributor": {"reference": "#author3", "type": "Practitioner", "display": "de Boer RA"}, "forenameInitials": "RA", "affiliation": [{"display": "Department of Cardiology, University of Groningen, University Medical Centre Groningen, PO Box 30.001, 9700 RB Groningen, The Netherlands."}]}, {"contributor": {"reference": "#author4", "type": "Practitioner", "display": "Rienstra M"}, "forenameInitials": "M", "affiliation": [{"display": "Department of Cardiology, University of Groningen, University Medical Centre Groningen, PO Box 30.001, 9700 RB Groningen, The Netherlands."}]}, {"contributor": {"reference": "#author5", "type": "Practitioner", "display": "Hazebroek EJ"}, "forenameInitials": "EJ", "affiliation": [{"display": "Department of Surgery/Vitalys Clinic, Rijnstate Hospital Arnhem, Arnhem, The Netherlands."}, {"display": "Division of Human Nutrition and Health, Wageningen University & Research, Wageningen, The Netherlands."}]}, {"contributor": {"reference": "#author6", "type": "Practitioner", "display": "van Veldhuisen DJ"}, "forenameInitials": "DJ", "affiliation": [{"display": "Department of Cardiology, University of Groningen, University Medical Centre Groningen, PO Box 30.001, 9700 RB Groningen, The Netherlands."}]}], "complete": true}}, "extension": [{"url": "http://hl7.org/fhir/uv/ebm/StructureDefinition/artifact-publication-status", "valueCodeableConcept": {"coding": [{"system": "http://terminology.hl7.org/CodeSystem/cited-artifact-status-type", "code": "active", "display": "Active"}]}}], "description": "This Citation Resource is referenced in an example for the EBMonFHIR Implementation Guide."}