{"id": "306957", "url": "https://fevir.net/resources/Citation/306957", "meta": {"profile": ["http://hl7.org/fhir/uv/ebm/StructureDefinition/journal-article-citation"], "versionId": "14", "lastUpdated": "2025-10-13T12:34:35.118Z"}, "title": "30545967 Parachute use to prevent death and major trauma when jumping from aircraft: randomized controlled trial.", "author": [{"name": "Computable Publishing\u00ae: MEDLINE-to-FEvIR Converter"}], "status": "active", "contact": [{"telecom": [{"value": "support@computablepublishing.com", "system": "email"}]}], "contained": [{"id": "contributor0", "name": [{"given": ["Robert W"], "family": "Yeh"}], "resourceType": "Practitioner"}, {"id": "contributor1", "name": [{"given": ["Linda R"], "family": "Valsdottir"}], "resourceType": "Practitioner"}, {"id": "contributor2", "name": [{"given": ["Michael W"], "family": "Yeh"}], "resourceType": "Practitioner"}, {"id": "contributor3", "name": [{"given": ["Changyu"], "family": "Shen"}], "resourceType": "Practitioner"}, {"id": "contributor4", "name": [{"given": ["Daniel B"], "family": "Kramer"}], "resourceType": "Practitioner"}, {"id": "contributor5", "name": [{"given": ["Jordan B"], "family": "Strom"}], "resourceType": "Practitioner"}, {"id": "contributor6", "name": [{"given": ["Eric A"], "family": "Secemsky"}], "resourceType": "Practitioner"}, {"id": "contributor7", "name": [{"given": ["Joanne L"], "family": "Healy"}], "resourceType": "Practitioner"}, {"id": "contributor8", "name": [{"given": ["Robert M"], "family": "Domeier"}], "resourceType": "Practitioner"}, {"id": "contributor9", "name": [{"given": ["Dhruv S"], "family": "Kazi"}], "resourceType": "Practitioner"}, {"id": "contributor10", "name": [{"given": ["Brahmajee K"], "family": "Nallamothu"}], "resourceType": "Practitioner"}, {"id": "contributor11", "name": "PARACHUTE Investigators", "resourceType": "Organization"}, {"id": "meshHeading0", "content": [{"type": {"text": "components (if present) include qualifier codings", "coding": [{"code": "mesh-heading", "system": "http://terminology.hl7.org/CodeSystem/cited-artifact-classification-type", "display": "MeSH heading"}]}, "component": [{"type": {"text": "qualifier"}, "classifier": [{"text": "is not a major topic"}]}, {"type": {"text": "qualifier"}, "component": [{"type": {"text": "is Major topic"}, "classifier": [{"coding": [{"code": "C49487", "system": "http://ncicb.nci.nih.gov/xml/owl/EVS/Thesaurus.owl", "display": "No"}]}]}], "classifier": [{"coding": [{"code": "Q000517", "system": "https://www.nlm.nih.gov/mesh", "display": "prevention & control"}]}]}], "classifier": [{"coding": [{"code": "D000060", "system": "https://www.nlm.nih.gov/mesh", "display": "Accidents, Aviation", "userSelected": false}]}], "freeToShare": true}, {"type": {"text": "components (if present) include qualifier codings", "coding": [{"code": "mesh-heading", "system": "http://terminology.hl7.org/CodeSystem/cited-artifact-classification-type", "display": "MeSH heading"}]}, "component": [{"type": {"text": "qualifier"}, "classifier": [{"text": "is not a major topic"}]}], "classifier": [{"coding": [{"code": "D000328", "system": "https://www.nlm.nih.gov/mesh", "display": "Adult", "userSelected": false}]}], "freeToShare": true}, {"type": {"text": "components (if present) include qualifier codings", "coding": [{"code": "mesh-heading", "system": "http://terminology.hl7.org/CodeSystem/cited-artifact-classification-type", "display": "MeSH heading"}]}, "component": [{"type": {"text": "qualifier"}, "classifier": [{"text": "is not a major topic"}]}, {"type": {"text": "qualifier"}, "component": [{"type": {"text": "is Major topic"}, "classifier": [{"coding": [{"code": "C49488", "system": "http://ncicb.nci.nih.gov/xml/owl/EVS/Thesaurus.owl", "display": "Yes"}]}]}], "classifier": [{"coding": [{"code": "Q000379", "system": "https://www.nlm.nih.gov/mesh", "display": "methods"}]}]}], "classifier": [{"coding": [{"code": "D000337", "system": "https://www.nlm.nih.gov/mesh", "display": "Aerospace Medicine", "userSelected": false}]}], "freeToShare": true}, {"type": {"text": "components (if present) include qualifier codings", "coding": [{"code": "mesh-heading", "system": "http://terminology.hl7.org/CodeSystem/cited-artifact-classification-type", "display": "MeSH heading"}]}, "component": [{"type": {"text": "qualifier"}, "classifier": [{"text": "is not a major topic"}]}], "classifier": [{"coding": [{"code": "D000401", "system": "https://www.nlm.nih.gov/mesh", "display": "Aircraft", "userSelected": false}]}], "freeToShare": true}, {"type": {"text": "components (if present) include qualifier codings", "coding": [{"code": "mesh-heading", "system": "http://terminology.hl7.org/CodeSystem/cited-artifact-classification-type", "display": "MeSH heading"}]}, "component": [{"type": {"text": "qualifier"}, "classifier": [{"text": "is not a major topic"}]}, {"type": {"text": "qualifier"}, "component": [{"type": {"text": "is Major topic"}, "classifier": [{"coding": [{"code": "C49488", "system": "http://ncicb.nci.nih.gov/xml/owl/EVS/Thesaurus.owl", "display": "Yes"}]}]}], "classifier": [{"coding": [{"code": "Q000517", "system": "https://www.nlm.nih.gov/mesh", "display": "prevention & control"}]}]}], "classifier": [{"coding": [{"code": "D003645", "system": "https://www.nlm.nih.gov/mesh", "display": "Death, Sudden", "userSelected": false}]}], "freeToShare": true}, {"type": {"text": "components (if present) include qualifier codings", "coding": [{"code": "mesh-heading", "system": "http://terminology.hl7.org/CodeSystem/cited-artifact-classification-type", "display": "MeSH heading"}]}, "component": [{"type": {"text": "qualifier"}, "classifier": [{"text": "is not a major topic"}]}], "classifier": [{"coding": [{"code": "D005260", "system": "https://www.nlm.nih.gov/mesh", "display": "Female", "userSelected": false}]}], "freeToShare": true}, {"type": {"text": "components (if present) include qualifier codings", "coding": [{"code": "mesh-heading", "system": "http://terminology.hl7.org/CodeSystem/cited-artifact-classification-type", "display": "MeSH heading"}]}, "component": [{"type": {"text": "qualifier"}, "classifier": [{"text": "is not a major topic"}]}], "classifier": [{"coding": [{"code": "D006801", "system": "https://www.nlm.nih.gov/mesh", "display": "Humans", "userSelected": false}]}], "freeToShare": true}, {"type": {"text": "components (if present) include qualifier codings", "coding": [{"code": "mesh-heading", "system": "http://terminology.hl7.org/CodeSystem/cited-artifact-classification-type", "display": "MeSH heading"}]}, "component": [{"type": {"text": "qualifier"}, "classifier": [{"text": "is not a major topic"}]}], "classifier": [{"coding": [{"code": "D015601", "system": "https://www.nlm.nih.gov/mesh", "display": "Injury Severity Score", "userSelected": false}]}], "freeToShare": true}, {"type": {"text": "components (if present) include qualifier codings", "coding": [{"code": "mesh-heading", "system": "http://terminology.hl7.org/CodeSystem/cited-artifact-classification-type", "display": "MeSH heading"}]}, "component": [{"type": {"text": "qualifier"}, "classifier": [{"text": "is not a major topic"}]}], "classifier": [{"coding": [{"code": "D008297", "system": "https://www.nlm.nih.gov/mesh", "display": "Male", "userSelected": false}]}], "freeToShare": true}, {"type": {"text": "components (if present) include qualifier codings", "coding": [{"code": "mesh-heading", "system": "http://terminology.hl7.org/CodeSystem/cited-artifact-classification-type", "display": "MeSH heading"}]}, "component": [{"type": {"text": "qualifier"}, "classifier": [{"text": "is not a major topic"}]}], "classifier": [{"coding": [{"code": "D008875", "system": "https://www.nlm.nih.gov/mesh", "display": "Middle Aged", "userSelected": false}]}], "freeToShare": true}, {"type": {"text": "components (if present) include qualifier codings", "coding": [{"code": "mesh-heading", "system": "http://terminology.hl7.org/CodeSystem/cited-artifact-classification-type", "display": "MeSH heading"}]}, "component": [{"type": {"text": "qualifier"}, "classifier": [{"text": "is Major topic"}]}], "classifier": [{"coding": [{"code": "D011482", "system": "https://www.nlm.nih.gov/mesh", "display": "Protective Devices", "userSelected": false}]}], "freeToShare": true}, {"type": {"text": "components (if present) include qualifier codings", "coding": [{"code": "mesh-heading", "system": "http://terminology.hl7.org/CodeSystem/cited-artifact-classification-type", "display": "MeSH heading"}]}, "component": [{"type": {"text": "qualifier"}, "classifier": [{"text": "is not a major topic"}]}], "classifier": [{"coding": [{"code": "D014925", "system": "https://www.nlm.nih.gov/mesh", "display": "Wit and Humor as Topic", "userSelected": false}]}], "freeToShare": true}, {"type": {"text": "components (if present) include qualifier codings", "coding": [{"code": "mesh-heading", "system": "http://terminology.hl7.org/CodeSystem/cited-artifact-classification-type", "display": "MeSH heading"}]}, "component": [{"type": {"text": "qualifier"}, "classifier": [{"text": "is not a major topic"}]}, {"type": {"text": "qualifier"}, "component": [{"type": {"text": "is Major topic"}, "classifier": [{"coding": [{"code": "C49488", "system": "http://ncicb.nci.nih.gov/xml/owl/EVS/Thesaurus.owl", "display": "Yes"}]}]}], "classifier": [{"coding": [{"code": "Q000517", "system": "https://www.nlm.nih.gov/mesh", "display": "prevention & control"}]}]}], "classifier": [{"coding": [{"code": "D014947", "system": "https://www.nlm.nih.gov/mesh", "display": "Wounds and Injuries", "userSelected": false}]}], "freeToShare": true}], "resourceType": "ArtifactAssessment", "artifactReference": {"type": "Citation", "reference": "#"}}], "copyright": "https://creativecommons.org/licenses/by-nc-sa/4.0/", "extension": [{"url": "http://hl7.org/fhir/uv/ebm/StructureDefinition/artifact-publication-status", "valueCodeableConcept": {"coding": [{"code": "active", "system": "http://terminology.hl7.org/CodeSystem/cited-artifact-status-type", "display": "Active"}]}}], "publisher": "Computable Publishing LLC", "identifier": [{"type": {"text": "FEvIR Object Identifier", "coding": [{"system": "http://terminology.hl7.org/CodeSystem/v2-0203", "code": "ACSN", "display": "Accession ID"}]}, "value": "306957", "system": "https://fevir.net/FOI", "assigner": {"display": "Computable Publishing LLC"}}, {"value": "30545967", "system": "https://pubmed.ncbi.nlm.nih.gov"}], "statusDate": [{"period": {"end": "2018-12-15T06:00:00.000Z"}, "activity": {"coding": [{"code": "pubmed-pubstatus-entrez", "system": "http://hl7.org/fhir/citation-status-type", "display": "PubMed Pubstatus of Entrez"}]}}, {"period": {"end": "2018-12-14T06:00:00.000Z"}, "activity": {"coding": [{"code": "pubmed-pubstatus-pubmed", "system": "http://hl7.org/fhir/citation-status-type", "display": "PubMed Pubstatus of Pubmed"}]}}, {"period": {"end": "2019-04-10T06:00:00.000Z"}, "activity": {"coding": [{"code": "pubmed-pubstatus-medline", "system": "http://hl7.org/fhir/citation-status-type", "display": "PubMed Pubstatus of Medline"}]}}, {"period": {"end": "2018-01-01"}, "activity": {"coding": [{"code": "pubmed-pubstatus-pmc-release", "system": "http://hl7.org/fhir/citation-status-type", "display": "PubMed Pubstatus of PMC release"}]}}], "useContext": [{"code": {"code": "fevir-platform-use", "system": "http://terminology.hl7.org/CodeSystem/citation-classification-type", "display": "FEvIR Platform Use"}, "valueCodeableConcept": {"coding": [{"code": "medline-base", "system": "http://terminology.hl7.org/CodeSystem/citation-artifact-classifier", "display": "Medline Base", "userSelected": false}]}}], "approvalDate": "2019-04-09", "currentState": [{"coding": [{"code": "medline-medline", "system": "http://hl7.org/fhir/citation-status-type", "display": "Medline Citation Status of Medline"}]}, {"coding": [{"code": "pubmed-publication-status-epublish", "system": "http://hl7.org/fhir/citation-status-type", "display": "PubMed PublicationStatus of epublish"}]}], "resourceType": "Citation", "citedArtifact": {"title": [{"text": "PARACHUTE Trial Citation Parachute use to prevent death and major trauma when jumping from aircraft: randomized controlled trial.", "type": [{"coding": [{"code": "primary", "system": "http://terminology.hl7.org/CodeSystem/title-type", "display": "Primary title"}]}], "language": {"coding": [{"system": "urn:ietf:bcp:47", "code": "en", "display": "English"}]}}], "abstract": [{"text": "**OBJECTIVE:** To determine if using a parachute prevents death or major traumatic injury when jumping from an aircraft.\n**DESIGN:** Randomized controlled trial.\n<AbstractText Label=\"SETTING\" NlmCategory=\"METHODS\">Private or commercial aircraft between September 2017 and August 2018.\n<AbstractText Label=\"PARTICIPANTS\" NlmCategory=\"METHODS\">92 aircraft passengers aged 18 and over were screened for participation. 23 agreed to be enrolled and were randomized.\n**INTERVENTION:** Jumping from an aircraft (airplane or helicopter) with a parachute versus an empty backpack (unblinded).\n<AbstractText Label=\"MAIN OUTCOME MEASURES\" NlmCategory=\"METHODS\">Composite of death or major traumatic injury (defined by an Injury Severity Score over 15) upon impact with the ground measured immediately after landing.\n**RESULTS:** Parachute use did not significantly reduce death or major injury (0% for parachute <i>v</i> 0% for control; P&gt;0.9). This finding was consistent across multiple subgroups. Compared with individuals screened but not enrolled, participants included in the study were on aircraft at significantly lower altitude (mean of 0.6 m for participants <i>v</i> mean of 9146 m for non-participants; P&lt;0.001) and lower velocity (mean of 0 km/h <i>v</i> mean of 800 km/h; P&lt;0.001).\n**CONCLUSIONS:** Parachute use did not reduce death or major traumatic injury when jumping from aircraft in the first randomized evaluation of this intervention. However, the trial was only able to enroll participants on small stationary aircraft on the ground, suggesting cautious extrapolation to high altitude jumps. When beliefs regarding the effectiveness of an intervention exist in the community, randomized trials might selectively enroll individuals with a lower perceived likelihood of benefit, thus diminishing the applicability of the results to clinical practice.", "copyright": "Published by the BMJ Publishing Group Limited. For permission to use (where not already granted under a licence) please go to http://group.bmj.com/group/rights-licensing/permissions."}], "relatesTo": [{"type": "cites", "citation": "Smith GC, Pell JP. Parachute use to prevent death and major trauma related to gravitational challenge: systematic review of randomised controlled trials. BMJ 2003;327:1459-61. 10.1136/bmj.327.7429.1459", "classifier": [{"coding": [{"code": "D016428", "system": "http://hl7.org/fhir/citation-artifact-classifier", "display": "Journal Article"}]}], "targetReference": {"identifier": {"value": "14684649", "system": "https://pubmed.ncbi.nlm.nih.gov", "assigner": {"display": "NLM"}}, "reference": "https://pubmed.ncbi.nlm.nih.gov/14684649/"}}, {"type": "cites", "citation": "United States Parachute Association. Skydiver's Information Manual, 2018. https://uspa.org/Portals/0/files/Man_SIM_2018.pdf"}, {"type": "cites", "citation": "Knapik J, Steelman R. Risk factors for injuries during military static-line airborne operations: a systematic review and meta-analysis. J Athl Train 2016;51:962-80. 10.4085/1062-6050-51.9.10", "classifier": [{"coding": [{"code": "D016428", "system": "http://hl7.org/fhir/citation-artifact-classifier", "display": "Journal Article"}]}], "targetReference": {"identifier": {"value": "28068166", "system": "https://pubmed.ncbi.nlm.nih.gov", "assigner": {"display": "NLM"}}, "reference": "https://pubmed.ncbi.nlm.nih.gov/28068166/"}}, {"type": "cites", "citation": "Ellitsgaard N. Parachuting injuries: a study of 110,000 sports jumps. Br J Sports Med 1987;21:13-7. 10.1136/bjsm.21.1.13", "classifier": [{"coding": [{"code": "D016428", "system": "http://hl7.org/fhir/citation-artifact-classifier", "display": "Journal Article"}]}], "targetReference": {"identifier": {"value": "3580720", "system": "https://pubmed.ncbi.nlm.nih.gov", "assigner": {"display": "NLM"}}, "reference": "https://pubmed.ncbi.nlm.nih.gov/3580720/"}}, {"type": "cites", "citation": "ICD-10-CM Code V97.2. Parachutist Accident. https://icd.codes/icd10cm/V972"}, {"type": "cites", "citation": "Echt DS, Liebson PR, Mitchell LB, et al. Mortality and morbidity in patients receiving encainide, flecainide, or placebo. The Cardiac Arrhythmia Suppression Trial. N Engl J Med 1991;324:781-8. 10.1056/NEJM199103213241201", "classifier": [{"coding": [{"code": "D016428", "system": "http://hl7.org/fhir/citation-artifact-classifier", "display": "Journal Article"}]}], "targetReference": {"identifier": {"value": "1900101", "system": "https://pubmed.ncbi.nlm.nih.gov", "assigner": {"display": "NLM"}}, "reference": "https://pubmed.ncbi.nlm.nih.gov/1900101/"}}, {"type": "cites", "citation": "Rossouw JE, Anderson GL, Prentice RL, et al. Writing Group for the Women\u2019s Health Initiative Investigators Risks and benefits of estrogen plus progestin in healthy postmenopausal women: principal results From the Women\u2019s Health Initiative randomized controlled trial. JAMA 2002;288:321-33. 10.1001/jama.288.3.321", "classifier": [{"coding": [{"code": "D016428", "system": "http://hl7.org/fhir/citation-artifact-classifier", "display": "Journal Article"}]}], "targetReference": {"identifier": {"value": "12117397", "system": "https://pubmed.ncbi.nlm.nih.gov", "assigner": {"display": "NLM"}}, "reference": "https://pubmed.ncbi.nlm.nih.gov/12117397/"}}, {"type": "cites", "citation": "QuickTapSurvey [program]: TabbleDabble Inc., Toronto, Canada. https://www.quicktapsurvey.com"}, {"type": "cites", "citation": "Baker SP, O\u2019Neill B, Haddon W, Jr, Long WB. The injury severity score: a method for describing patients with multiple injuries and evaluating emergency care. J Trauma 1974;14:187-96. 10.1097/00005373-197403000-00001", "classifier": [{"coding": [{"code": "D016428", "system": "http://hl7.org/fhir/citation-artifact-classifier", "display": "Journal Article"}]}], "targetReference": {"identifier": {"value": "4814394", "system": "https://pubmed.ncbi.nlm.nih.gov", "assigner": {"display": "NLM"}}, "reference": "https://pubmed.ncbi.nlm.nih.gov/4814394/"}}, {"type": "cites", "citation": "Ware J, Jr, Kosinski M, Keller SD. A 12-Item Short-Form Health Survey: construction of scales and preliminary tests of reliability and validity. Med Care 1996;34:220-33. 10.1097/00005650-199603000-00003", "classifier": [{"coding": [{"code": "D016428", "system": "http://hl7.org/fhir/citation-artifact-classifier", "display": "Journal Article"}]}], "targetReference": {"identifier": {"value": "8628042", "system": "https://pubmed.ncbi.nlm.nih.gov", "assigner": {"display": "NLM"}}, "reference": "https://pubmed.ncbi.nlm.nih.gov/8628042/"}}, {"type": "cites", "citation": "Schwartz AL, Landon BE, Elshaug AG, Chernew ME, McWilliams JM. Measuring low-value care in Medicare. JAMA Intern Med 2014;174:1067-76. 10.1001/jamainternmed.2014.1541", "classifier": [{"coding": [{"code": "D016428", "system": "http://hl7.org/fhir/citation-artifact-classifier", "display": "Journal Article"}]}], "targetReference": {"identifier": {"value": "24819824", "system": "https://pubmed.ncbi.nlm.nih.gov", "assigner": {"display": "NLM"}}, "reference": "https://pubmed.ncbi.nlm.nih.gov/24819824/"}}, {"type": "cites", "citation": "Kunz R, Oxman AD. The unpredictability paradox: review of empirical comparisons of randomised and non--randomised clinical trials. BMJ 1998;317:1185-90. 10.1136/bmj.317.7167.1185", "classifier": [{"coding": [{"code": "D016428", "system": "http://hl7.org/fhir/citation-artifact-classifier", "display": "Journal Article"}]}], "targetReference": {"identifier": {"value": "9794851", "system": "https://pubmed.ncbi.nlm.nih.gov", "assigner": {"display": "NLM"}}, "reference": "https://pubmed.ncbi.nlm.nih.gov/9794851/"}}, {"type": "cites", "citation": "Nallamothu BK, Hayward RA, Bates ER. Beyond the randomized clinical trial: the role of effectiveness studies in evaluating cardiovascular therapies. Circulation 2008;118:1294-303. 10.1161/CIRCULATIONAHA.107.703579", "classifier": [{"coding": [{"code": "D016428", "system": "http://hl7.org/fhir/citation-artifact-classifier", "display": "Journal Article"}]}], "targetReference": {"identifier": {"value": "18794402", "system": "https://pubmed.ncbi.nlm.nih.gov", "assigner": {"display": "NLM"}}, "reference": "https://pubmed.ncbi.nlm.nih.gov/18794402/"}}, {"type": "cites", "citation": "Kennedy-Martin T, Curtis S, Faries D, Robinson S, Johnston J. A literature review on the representativeness of randomized controlled trial samples and implications for the external validity of trial results. Trials 2015;16:495. 10.1186/s13063-015-1023-4", "classifier": [{"coding": [{"code": "D016428", "system": "http://hl7.org/fhir/citation-artifact-classifier", "display": "Journal Article"}]}], "targetReference": {"identifier": {"value": "26530985", "system": "https://pubmed.ncbi.nlm.nih.gov", "assigner": {"display": "NLM"}}, "reference": "https://pubmed.ncbi.nlm.nih.gov/26530985/"}}, {"type": "cites", "citation": "Hayes MJ, Kaestner V, Mailankody S, Prasad V. Most medical practices are not parachutes: a citation analysis of practices felt by biomedical authors to be analogous to parachutes. CMAJ Open 2018;6:E31-8. 10.9778/cmajo.20170088", "classifier": [{"coding": [{"code": "D016428", "system": "http://hl7.org/fhir/citation-artifact-classifier", "display": "Journal Article"}]}], "targetReference": {"identifier": {"value": "29343497", "system": "https://pubmed.ncbi.nlm.nih.gov", "assigner": {"display": "NLM"}}, "reference": "https://pubmed.ncbi.nlm.nih.gov/29343497/"}}, {"type": "cites", "citation": "Newton SI. Law of Universal Gravitation. Philosophi\u00e6 Naturalis Principia Mathematica, 1687."}, {"type": "cites", "citation": "Al-Lamee R, Thompson D, Dehbi H-M, et al. ORBITA investigators Percutaneous coronary intervention in stable angina (ORBITA): a double-blind, randomised controlled trial. Lancet 2018;391:31-40. 10.1016/S0140-6736(17)32714-9", "classifier": [{"coding": [{"code": "D016428", "system": "http://hl7.org/fhir/citation-artifact-classifier", "display": "Journal Article"}]}], "targetReference": {"identifier": {"value": "29103656", "system": "https://pubmed.ncbi.nlm.nih.gov", "assigner": {"display": "NLM"}}, "reference": "https://pubmed.ncbi.nlm.nih.gov/29103656/"}}, {"type": "correction-in", "citation": "BMJ. 2018 Dec 18;363:k5343. doi: 10.1136/bmj.k5343", "classifier": [{"coding": [{"code": "D016425", "system": "https://www.nlm.nih.gov/mesh", "display": "Published Erratum", "userSelected": false}]}], "targetReference": {"identifier": {"value": "30563831", "system": "https://pubmed.ncbi.nlm.nih.gov", "assigner": {"display": "NLM"}}, "reference": "https://pubmed.ncbi.nlm.nih.gov/30563831/"}}, {"type": "comment-in", "citation": "Catheter Cardiovasc Interv. 2019 Apr 1;93(5):944-945. doi: 10.1002/ccd.28151", "classifier": [{"coding": [{"code": "D016420", "system": "https://www.nlm.nih.gov/mesh", "display": "Comment", "userSelected": false}]}], "targetReference": {"identifier": {"value": "30762932", "system": "https://pubmed.ncbi.nlm.nih.gov", "assigner": {"display": "NLM"}}, "reference": "https://pubmed.ncbi.nlm.nih.gov/30762932/"}}, {"type": "comment-in", "citation": "MMW Fortschr Med. 2019 Feb;161(3):26. doi: 10.1007/s15006-019-0173-9", "classifier": [{"coding": [{"code": "D016420", "system": "https://www.nlm.nih.gov/mesh", "display": "Comment", "userSelected": false}]}], "targetReference": {"identifier": {"value": "30778977", "system": "https://pubmed.ncbi.nlm.nih.gov", "assigner": {"display": "NLM"}}, "reference": "https://pubmed.ncbi.nlm.nih.gov/30778977/"}}], "identifier": [{"value": "30545967", "system": "https://pubmed.ncbi.nlm.nih.gov"}, {"value": "PMC6298200", "system": "https://www.ncbi.nlm.nih.gov/pmc/"}, {"value": "10.1136/bmj.k5094", "system": "https://doi.org"}], "webLocation": [{"url": "https://pubmed.ncbi.nlm.nih.gov/30545967/", "classifier": [{"coding": [{"code": "abstract", "system": "http://terminology.hl7.org/CodeSystem/artifact-url-classifier", "display": "Abstract"}]}]}, {"url": "https://doi.org/10.1136/bmj.k5094", "classifier": [{"coding": [{"code": "doi-based", "system": "http://terminology.hl7.org/CodeSystem/artifact-url-classifier", "display": "DOI Based"}]}]}], "classification": [{"type": {"coding": [{"code": "publishing-model", "system": "http://terminology.hl7.org/CodeSystem/cited-artifact-classification-type", "display": "Publishing Model", "userSelected": false}]}, "classifier": [{"coding": [{"code": "Electronic", "system": "http://terminology.hl7.org/CodeSystem/citation-artifact-classifier", "display": "Electronic", "userSelected": false}]}]}, {"type": {"coding": [{"code": "mesh-heading", "system": "http://terminology.hl7.org/CodeSystem/cited-artifact-classification-type", "display": "MeSH heading"}]}, "artifactAssessment": [{"type": "ArtifactAssessment", "reference": "#meshHeading0"}]}, {"type": {"coding": [{"code": "publication-type", "system": "http://terminology.hl7.org/CodeSystem/cited-artifact-classification-type", "display": "Publication type"}]}, "classifier": [{"coding": [{"code": "D016428", "system": "https://www.nlm.nih.gov/mesh", "display": "Journal Article", "userSelected": false}]}, {"coding": [{"code": "D016449", "system": "https://www.nlm.nih.gov/mesh", "display": "Randomized Controlled Trial", "userSelected": false}]}]}, {"type": {"coding": [{"code": "knowledge-artifact-type", "system": "http://terminology.hl7.org/CodeSystem/cited-artifact-classification-type", "display": "Knowledge Artifact Type", "userSelected": false}]}, "classifier": [{"coding": [{"code": "D016428", "system": "http://terminology.hl7.org/CodeSystem/citation-artifact-classifier", "display": "Journal Article", "userSelected": false}]}], "artifactAssessment": [{"display": "Classifier added by Computable Publishing LLC"}]}, {"type": {"coding": [{"code": "citation-subset", "system": "http://terminology.hl7.org/CodeSystem/cited-artifact-classification-type", "display": "Citation subset", "userSelected": false}]}, "classifier": [{"coding": [{"code": "IM", "system": "https://www.nlm.nih.gov/bsd/licensee/elements_descriptions.html#citationsubset", "display": "IM", "userSelected": false}]}]}], "contributorship": {"entry": [{"affiliation": [{"display": "Richard A and Susan F Smith Center for Outcomes Research in Cardiology, Beth Israel Deaconess Medical Center, Harvard Medical School, 375 Longwood Avenue, Boston, MA 02215, USA ryeh@bidmc.harvard.edu."}], "contributor": {"type": "Practitioner", "display": "Yeh RW", "reference": "#contributor0"}, "forenameInitials": "RW"}, {"affiliation": [{"display": "Richard A and Susan F Smith Center for Outcomes Research in Cardiology, Beth Israel Deaconess Medical Center, Harvard Medical School, 375 Longwood Avenue, Boston, MA 02215, USA."}], "contributor": {"type": "Practitioner", "display": "Valsdottir LR", "reference": "#contributor1"}, "forenameInitials": "LR"}, {"affiliation": [{"display": "David Geffen School of Medicine, University of California, Los Angeles, CA, USA ryeh@bidmc.harvard.edu."}], "contributor": {"type": "Practitioner", "display": "Yeh MW", "reference": "#contributor2"}, "forenameInitials": "MW"}, {"affiliation": [{"display": "Richard A and Susan F Smith Center for Outcomes Research in Cardiology, Beth Israel Deaconess Medical Center, Harvard Medical School, 375 Longwood Avenue, Boston, MA 02215, USA."}], "contributor": {"type": "Practitioner", "display": "Shen C", "reference": "#contributor3"}, "forenameInitials": "C"}, {"affiliation": [{"display": "Richard A and Susan F Smith Center for Outcomes Research in Cardiology, Beth Israel Deaconess Medical Center, Harvard Medical School, 375 Longwood Avenue, Boston, MA 02215, USA."}], "contributor": {"type": "Practitioner", "display": "Kramer DB", "reference": "#contributor4"}, "forenameInitials": "DB"}, {"affiliation": [{"display": "Richard A and Susan F Smith Center for Outcomes Research in Cardiology, Beth Israel Deaconess Medical Center, Harvard Medical School, 375 Longwood Avenue, Boston, MA 02215, USA."}], "contributor": {"type": "Practitioner", "display": "Strom JB", "reference": "#contributor5"}, "forenameInitials": "JB"}, {"affiliation": [{"display": "Richard A and Susan F Smith Center for Outcomes Research in Cardiology, Beth Israel Deaconess Medical Center, Harvard Medical School, 375 Longwood Avenue, Boston, MA 02215, USA."}], "contributor": {"type": "Practitioner", "display": "Secemsky EA", "reference": "#contributor6"}, "forenameInitials": "EA"}, {"affiliation": [{"display": "Richard A and Susan F Smith Center for Outcomes Research in Cardiology, Beth Israel Deaconess Medical Center, Harvard Medical School, 375 Longwood Avenue, Boston, MA 02215, USA."}], "contributor": {"type": "Practitioner", "display": "Healy JL", "reference": "#contributor7"}, "forenameInitials": "JL"}, {"affiliation": [{"display": "Department of Emergency Medicine, University of Michigan and Saint Joseph Hospital, Ann Arbor, MI, USA."}], "contributor": {"type": "Practitioner", "display": "Domeier RM", "reference": "#contributor8"}, "forenameInitials": "RM"}, {"affiliation": [{"display": "Richard A and Susan F Smith Center for Outcomes Research in Cardiology, Beth Israel Deaconess Medical Center, Harvard Medical School, 375 Longwood Avenue, Boston, MA 02215, USA."}], "contributor": {"type": "Practitioner", "display": "Kazi DS", "reference": "#contributor9"}, "forenameInitials": "DS"}, {"affiliation": [{"display": "Michigan Integrated Center for Health Analytics and Medical Prediction, Department of Internal Medicine and Institute for Healthcare Policy and Innovation, University of Michigan, Ann Arbor, MI, USA."}], "contributor": {"type": "Practitioner", "display": "Nallamothu BK", "reference": "#contributor10"}, "forenameInitials": "BK"}, {"contributor": {"type": "Organization", "display": "PARACHUTE Investigators", "reference": "#contributor11"}}], "complete": true}, "publicationForm": [{"volume": "363", "language": [{"coding": [{"system": "urn:ietf:bcp:47", "code": "en", "display": "English"}]}], "pageString": "k5094", "articleDate": "2018-12-13", "citedMedium": {"coding": [{"code": "internet", "system": "http://terminology.hl7.org/CodeSystem/cited-medium", "display": "Internet"}]}, "publishedIn": {"type": {"coding": [{"code": "D020492", "system": "http://terminology.hl7.org/CodeSystem/published-in-type", "display": "Periodical"}]}, "title": "BMJ (Clinical research ed.)", "identifier": [{"type": {"text": "Electronic ISSN Type", "coding": [{"code": "Electronic", "system": "https://www.nlm.nih.gov/bsd/licensee/elements_descriptions.html#issn", "display": "Electronic"}]}, "value": "1756-1833", "system": "https://portal.issn.org"}, {"type": {"text": "ISOAbbreviation", "coding": [{"system": "http://terminology.hl7.org/CodeSystem/v2-0203", "code": "XX", "display": "Organization identifier"}]}, "value": "BMJ", "system": "https://www.issn.org/services/online-services/access-to-the-ltwa/"}, {"type": {"text": "ISSN Linking", "coding": [{"system": "http://terminology.hl7.org/CodeSystem/v2-0203", "code": "XX", "display": "Organization identifier"}]}, "value": "0959-8138", "system": "https://www.issn.org/understanding-the-issn/assignment-rules/the-issn-l-for-publications-on-multiple-media/"}, {"type": {"text": "Medline Title Abbreviation", "coding": [{"system": "http://terminology.hl7.org/CodeSystem/v2-0203", "code": "XX", "display": "Organization identifier"}]}, "value": "BMJ", "system": "https://www.nlm.nih.gov/tsd/cataloging/contructitleabbre.html"}, {"type": {"text": "NLM Unique ID", "coding": [{"system": "http://terminology.hl7.org/CodeSystem/v2-0203", "code": "XX", "display": "Organization identifier"}]}, "value": "8900488", "system": "https://locatorplus.gov/cgi-bin/Pwebrecon.cgi?DB=local"}], "publisherLocation": "England"}}, {"articleDate": "2018-12-13", "citedMedium": {"coding": [{"code": "internet-without-issue", "system": "http://terminology.hl7.org/CodeSystem/cited-medium", "display": "Internet without issue"}]}}]}, "classification": [{"type": {"coding": [{"code": "citation-source", "system": "http://terminology.hl7.org/CodeSystem/citation-classification-type", "display": "Citation Source"}]}, "classifier": [{"text": "MEDLINE"}]}, {"type": {"coding": [{"code": "medline-owner", "system": "http://terminology.hl7.org/CodeSystem/citation-classification-type", "display": "MEDLINE Citation Owner"}]}, "classifier": [{"coding": [{"code": "NLM", "system": "https://www.nlm.nih.gov/bsd/licensee/elements_descriptions.html#owner_value", "display": "National Library of Medicine, Index Section", "userSelected": false}]}]}], "lastReviewDate": "2020-02-25", "description": "This Citation Resource is referenced in an example for the EBMonFHIR Implementation Guide."}