{"resourceType": "Citation", "meta": {"profile": ["http://hl7.org/fhir/uv/ebm/StructureDefinition/journal-article-citation"], "versionId": "17", "lastUpdated": "2025-10-12T22:50:47.341Z"}, "contained": [{"resourceType": "Practitioner", "id": "contributor0", "name": [{"family": "Fizazi", "given": ["Karim"]}]}, {"resourceType": "Practitioner", "id": "contributor1", "name": [{"family": "Faivre", "given": ["Laura"]}]}, {"resourceType": "Practitioner", "id": "contributor2", "name": [{"family": "Lesaunier", "given": ["Fran\u00e7ois"]}]}, {"resourceType": "Practitioner", "id": "contributor3", "name": [{"family": "Delva", "given": ["Remy"]}]}, {"resourceType": "Practitioner", "id": "contributor4", "name": [{"family": "Gravis", "given": ["Gwena\u00eblle"]}]}, {"resourceType": "Practitioner", "id": "contributor5", "name": [{"family": "Rolland", "given": ["Fr\u00e9d\u00e9ric"]}]}, {"resourceType": "Practitioner", "id": "contributor6", "name": [{"family": "Priou", "given": ["Frank"]}]}, {"resourceType": "Practitioner", "id": "contributor7", "name": [{"family": "Ferrero", "given": ["Jean-Marc"]}]}, {"resourceType": "Practitioner", "id": "contributor8", "name": [{"family": "Houede", "given": ["Nadine"]}]}, {"resourceType": "Practitioner", "id": "contributor9", "name": [{"family": "Mourey", "given": ["Lo\u00efc"]}]}, {"resourceType": "Practitioner", "id": "contributor10", "name": [{"family": "Theodore", "given": ["Christine"]}]}, {"resourceType": "Practitioner", "id": "contributor11", "name": [{"family": "Krakowski", "given": ["Ivan"]}]}, {"resourceType": "Practitioner", "id": "contributor12", "name": [{"family": "Berdah", "given": ["Jean-Fran\u00e7ois"]}]}, {"resourceType": "Practitioner", "id": "contributor13", "name": [{"family": "Baciuchka", "given": ["Marjorie"]}]}, {"resourceType": "Practitioner", "id": "contributor14", "name": [{"family": "Laguerre", "given": ["Brigitte"]}]}, {"resourceType": "Practitioner", "id": "contributor15", "name": [{"family": "Fl\u00e9chon", "given": ["Aude"]}]}, {"resourceType": "Practitioner", "id": "contributor16", "name": [{"family": "Ravaud", "given": ["Alain"]}]}, {"resourceType": "Practitioner", "id": "contributor17", "name": [{"family": "Cojean-Zelek", "given": ["Isabelle"]}]}, {"resourceType": "Practitioner", "id": "contributor18", "name": [{"family": "Oudard", "given": ["St\u00e9phane"]}]}, {"resourceType": "Practitioner", "id": "contributor19", "name": [{"family": "Labourey", "given": ["Jean-Luc"]}]}, {"resourceType": "Practitioner", "id": "contributor20", "name": [{"family": "Chinet-Charrot", "given": ["Paule"]}]}, {"resourceType": "Practitioner", "id": "contributor21", "name": [{"family": "Legouffe", "given": ["Eric"]}]}, {"resourceType": "Practitioner", "id": "contributor22", "name": [{"family": "Lagrange", "given": ["Jean-L\u00e9on"]}]}, {"resourceType": "Practitioner", "id": "contributor23", "name": [{"family": "Linassier", "given": ["Claude"]}]}, {"resourceType": "Practitioner", "id": "contributor24", "name": [{"family": "Deplanque", "given": ["Ga\u00ebl"]}]}, {"resourceType": "Practitioner", "id": "contributor25", "name": [{"family": "Beuzeboc", "given": ["Philippe"]}]}, {"resourceType": "Practitioner", "id": "contributor26", "name": [{"family": "Davin", "given": ["Jean-Louis"]}]}, {"resourceType": "Practitioner", "id": "contributor27", "name": [{"family": "Martin", "given": ["Anne-Laure"]}]}, {"resourceType": "Practitioner", "id": "contributor28", "name": [{"family": "Habibian", "given": ["Muriel"]}]}, {"resourceType": "Practitioner", "id": "contributor29", "name": [{"family": "Laplanche", "given": ["Agn\u00e8s"]}]}, {"resourceType": "Practitioner", "id": "contributor30", "name": [{"family": "Culine", "given": ["St\u00e9phane"]}]}, {"resourceType": "ArtifactAssessment", "id": "meshHeading0", "artifactReference": {"reference": "#", "type": "Citation"}, "content": [{"type": {"coding": [{"system": "http://terminology.hl7.org/CodeSystem/cited-artifact-classification-type", "code": "mesh-heading", "display": "MeSH heading"}], "text": "components (if present) include qualifier codings"}, "classifier": [{"coding": [{"system": "https://www.nlm.nih.gov/mesh", "code": "D000368", "display": "Aged", "userSelected": false}]}], "freeToShare": true, "component": [{"type": {"text": "qualifier"}, "classifier": [{"text": "is not a major topic"}]}]}, {"type": {"coding": [{"system": "http://terminology.hl7.org/CodeSystem/cited-artifact-classification-type", "code": "mesh-heading", "display": "MeSH heading"}], "text": "components (if present) include qualifier codings"}, "classifier": [{"coding": [{"system": "https://www.nlm.nih.gov/mesh", "code": "D000726", "display": "Androgen Antagonists", "userSelected": false}]}], "freeToShare": true, "component": [{"type": {"text": "qualifier"}, "classifier": [{"text": "is not a major topic"}]}, {"type": {"text": "qualifier"}, "classifier": [{"coding": [{"system": "https://www.nlm.nih.gov/mesh", "code": "Q000627", "display": "therapeutic use"}]}], "component": [{"type": {"text": "is Major topic"}, "classifier": [{"coding": [{"system": "http://ncicb.nci.nih.gov/xml/owl/EVS/Thesaurus.owl", "code": "C49488", "display": "Yes"}]}]}]}]}, {"type": {"coding": [{"system": "http://terminology.hl7.org/CodeSystem/cited-artifact-classification-type", "code": "mesh-heading", "display": "MeSH heading"}], "text": "components (if present) include qualifier codings"}, "classifier": [{"coding": [{"system": "https://www.nlm.nih.gov/mesh", "code": "D000971", "display": "Antineoplastic Combined Chemotherapy Protocols", "userSelected": false}]}], "freeToShare": true, "component": [{"type": {"text": "qualifier"}, "classifier": [{"text": "is not a major topic"}]}, {"type": {"text": "qualifier"}, "classifier": [{"coding": [{"system": "https://www.nlm.nih.gov/mesh", "code": "Q000627", "display": "therapeutic use"}]}], "component": [{"type": {"text": "is Major topic"}, "classifier": [{"coding": [{"system": "http://ncicb.nci.nih.gov/xml/owl/EVS/Thesaurus.owl", "code": "C49488", "display": "Yes"}]}]}]}]}, {"type": {"coding": [{"system": "http://terminology.hl7.org/CodeSystem/cited-artifact-classification-type", "code": "mesh-heading", "display": "MeSH heading"}], "text": "components (if present) include qualifier codings"}, "classifier": [{"coding": [{"system": "https://www.nlm.nih.gov/mesh", "code": "D018572", "display": "Disease-Free Survival", "userSelected": false}]}], "freeToShare": true, "component": [{"type": {"text": "qualifier"}, "classifier": [{"text": "is not a major topic"}]}]}, {"type": {"coding": [{"system": "http://terminology.hl7.org/CodeSystem/cited-artifact-classification-type", "code": "mesh-heading", "display": "MeSH heading"}], "text": "components (if present) include qualifier codings"}, "classifier": [{"coding": [{"system": "https://www.nlm.nih.gov/mesh", "code": "D000077143", "display": "Docetaxel", "userSelected": false}]}], "freeToShare": true, "component": [{"type": {"text": "qualifier"}, "classifier": [{"text": "is not a major topic"}]}]}, {"type": {"coding": [{"system": "http://terminology.hl7.org/CodeSystem/cited-artifact-classification-type", "code": "mesh-heading", "display": "MeSH heading"}], "text": "components (if present) include qualifier codings"}, "classifier": [{"coding": [{"system": "https://www.nlm.nih.gov/mesh", "code": "D004305", "display": "Dose-Response Relationship, Drug", "userSelected": false}]}], "freeToShare": true, "component": [{"type": {"text": "qualifier"}, "classifier": [{"text": "is not a major topic"}]}]}, {"type": {"coding": [{"system": "http://terminology.hl7.org/CodeSystem/cited-artifact-classification-type", "code": "mesh-heading", "display": "MeSH heading"}], "text": "components (if present) include qualifier codings"}, "classifier": [{"coding": [{"system": "https://www.nlm.nih.gov/mesh", "code": "D004334", "display": "Drug Administration Schedule", "userSelected": false}]}], "freeToShare": true, "component": [{"type": {"text": "qualifier"}, "classifier": [{"text": "is not a major topic"}]}]}, {"type": {"coding": [{"system": "http://terminology.hl7.org/CodeSystem/cited-artifact-classification-type", "code": "mesh-heading", "display": "MeSH heading"}], "text": "components (if present) include qualifier codings"}, "classifier": [{"coding": [{"system": "https://www.nlm.nih.gov/mesh", "code": "D004961", "display": "Estramustine", "userSelected": false}]}], "freeToShare": true, "component": [{"type": {"text": "qualifier"}, "classifier": [{"text": "is not a major topic"}]}, {"type": {"text": "qualifier"}, "classifier": [{"coding": [{"system": "https://www.nlm.nih.gov/mesh", "code": "Q000008", "display": "administration & dosage"}]}], "component": [{"type": {"text": "is Major topic"}, "classifier": [{"coding": [{"system": "http://ncicb.nci.nih.gov/xml/owl/EVS/Thesaurus.owl", "code": "C49487", "display": "No"}]}]}]}]}, {"type": {"coding": [{"system": "http://terminology.hl7.org/CodeSystem/cited-artifact-classification-type", "code": "mesh-heading", "display": "MeSH heading"}], "text": "components (if present) include qualifier codings"}, "classifier": [{"coding": [{"system": "https://www.nlm.nih.gov/mesh", "code": "D005500", "display": "Follow-Up Studies", "userSelected": false}]}], "freeToShare": true, "component": [{"type": {"text": "qualifier"}, "classifier": [{"text": "is not a major topic"}]}]}, {"type": {"coding": [{"system": "http://terminology.hl7.org/CodeSystem/cited-artifact-classification-type", "code": "mesh-heading", "display": "MeSH heading"}], "text": "components (if present) include qualifier codings"}, "classifier": [{"coding": [{"system": "https://www.nlm.nih.gov/mesh", "code": "D005602", "display": "France", "userSelected": false}]}], "freeToShare": true, "component": [{"type": {"text": "qualifier"}, "classifier": [{"text": "is not a major topic"}]}]}, {"type": {"coding": [{"system": "http://terminology.hl7.org/CodeSystem/cited-artifact-classification-type", "code": "mesh-heading", "display": "MeSH heading"}], "text": "components (if present) include qualifier codings"}, "classifier": [{"coding": [{"system": "https://www.nlm.nih.gov/mesh", "code": "D006801", "display": "Humans", "userSelected": false}]}], "freeToShare": true, "component": [{"type": {"text": "qualifier"}, "classifier": [{"text": "is not a major topic"}]}]}, {"type": {"coding": [{"system": "http://terminology.hl7.org/CodeSystem/cited-artifact-classification-type", "code": "mesh-heading", "display": "MeSH heading"}], "text": "components (if present) include qualifier codings"}, "classifier": [{"coding": [{"system": "https://www.nlm.nih.gov/mesh", "code": "D053208", "display": "Kaplan-Meier Estimate", "userSelected": false}]}], "freeToShare": true, "component": [{"type": {"text": "qualifier"}, "classifier": [{"text": "is not a major topic"}]}]}, {"type": {"coding": [{"system": "http://terminology.hl7.org/CodeSystem/cited-artifact-classification-type", "code": "mesh-heading", "display": "MeSH heading"}], "text": "components (if present) include qualifier codings"}, "classifier": [{"coding": [{"system": "https://www.nlm.nih.gov/mesh", "code": "D008297", "display": "Male", "userSelected": false}]}], "freeToShare": true, "component": [{"type": {"text": "qualifier"}, "classifier": [{"text": "is not a major topic"}]}]}, {"type": {"coding": [{"system": "http://terminology.hl7.org/CodeSystem/cited-artifact-classification-type", "code": "mesh-heading", "display": "MeSH heading"}], "text": "components (if present) include qualifier codings"}, "classifier": [{"coding": [{"system": "https://www.nlm.nih.gov/mesh", "code": "D020714", "display": "Maximum Tolerated Dose", "userSelected": false}]}], "freeToShare": true, "component": [{"type": {"text": "qualifier"}, "classifier": [{"text": "is not a major topic"}]}]}, {"type": {"coding": [{"system": "http://terminology.hl7.org/CodeSystem/cited-artifact-classification-type", "code": "mesh-heading", "display": "MeSH heading"}], "text": "components (if present) include qualifier codings"}, "classifier": [{"coding": [{"system": "https://www.nlm.nih.gov/mesh", "code": "D008875", "display": "Middle Aged", "userSelected": false}]}], "freeToShare": true, "component": [{"type": {"text": "qualifier"}, "classifier": [{"text": "is not a major topic"}]}]}, {"type": {"coding": [{"system": "http://terminology.hl7.org/CodeSystem/cited-artifact-classification-type", "code": "mesh-heading", "display": "MeSH heading"}], "text": "components (if present) include qualifier codings"}, "classifier": [{"coding": [{"system": "https://www.nlm.nih.gov/mesh", "code": "D009361", "display": "Neoplasm Invasiveness", "userSelected": false}]}], "freeToShare": true, "component": [{"type": {"text": "qualifier"}, "classifier": [{"text": "is not a major topic"}]}, {"type": {"text": "qualifier"}, "classifier": [{"coding": [{"system": "https://www.nlm.nih.gov/mesh", "code": "Q000473", "display": "pathology"}]}], "component": [{"type": {"text": "is Major topic"}, "classifier": [{"coding": [{"system": "http://ncicb.nci.nih.gov/xml/owl/EVS/Thesaurus.owl", "code": "C49487", "display": "No"}]}]}]}]}, {"type": {"coding": [{"system": "http://terminology.hl7.org/CodeSystem/cited-artifact-classification-type", "code": "mesh-heading", "display": "MeSH heading"}], "text": "components (if present) include qualifier codings"}, "classifier": [{"coding": [{"system": "https://www.nlm.nih.gov/mesh", "code": "D009364", "display": "Neoplasm Recurrence, Local", "userSelected": false}]}], "freeToShare": true, "component": [{"type": {"text": "qualifier"}, "classifier": [{"text": "is not a major topic"}]}, {"type": {"text": "qualifier"}, "classifier": [{"coding": [{"system": "https://www.nlm.nih.gov/mesh", "code": "Q000453", "display": "epidemiology"}]}], "component": [{"type": {"text": "is Major topic"}, "classifier": [{"coding": [{"system": "http://ncicb.nci.nih.gov/xml/owl/EVS/Thesaurus.owl", "code": "C49487", "display": "No"}]}]}]}, {"type": {"text": "qualifier"}, "classifier": [{"coding": [{"system": "https://www.nlm.nih.gov/mesh", "code": "Q000473", "display": "pathology"}]}], "component": [{"type": {"text": "is Major topic"}, "classifier": [{"coding": [{"system": "http://ncicb.nci.nih.gov/xml/owl/EVS/Thesaurus.owl", "code": "C49487", "display": "No"}]}]}]}]}, {"type": {"coding": [{"system": "http://terminology.hl7.org/CodeSystem/cited-artifact-classification-type", "code": "mesh-heading", "display": "MeSH heading"}], "text": "components (if present) include qualifier codings"}, "classifier": [{"coding": [{"system": "https://www.nlm.nih.gov/mesh", "code": "D009367", "display": "Neoplasm Staging", "userSelected": false}]}], "freeToShare": true, "component": [{"type": {"text": "qualifier"}, "classifier": [{"text": "is not a major topic"}]}]}, {"type": {"coding": [{"system": "http://terminology.hl7.org/CodeSystem/cited-artifact-classification-type", "code": "mesh-heading", "display": "MeSH heading"}], "text": "components (if present) include qualifier codings"}, "classifier": [{"coding": [{"system": "https://www.nlm.nih.gov/mesh", "code": "D016016", "display": "Proportional Hazards Models", "userSelected": false}]}], "freeToShare": true, "component": [{"type": {"text": "qualifier"}, "classifier": [{"text": "is not a major topic"}]}]}, {"type": {"coding": [{"system": "http://terminology.hl7.org/CodeSystem/cited-artifact-classification-type", "code": "mesh-heading", "display": "MeSH heading"}], "text": "components (if present) include qualifier codings"}, "classifier": [{"coding": [{"system": "https://www.nlm.nih.gov/mesh", "code": "D017430", "display": "Prostate-Specific Antigen", "userSelected": false}]}], "freeToShare": true, "component": [{"type": {"text": "qualifier"}, "classifier": [{"text": "is not a major topic"}]}, {"type": {"text": "qualifier"}, "classifier": [{"coding": [{"system": "https://www.nlm.nih.gov/mesh", "code": "Q000097", "display": "blood"}]}], "component": [{"type": {"text": "is Major topic"}, "classifier": [{"coding": [{"system": "http://ncicb.nci.nih.gov/xml/owl/EVS/Thesaurus.owl", "code": "C49488", "display": "Yes"}]}]}]}]}, {"type": {"coding": [{"system": "http://terminology.hl7.org/CodeSystem/cited-artifact-classification-type", "code": "mesh-heading", "display": "MeSH heading"}], "text": "components (if present) include qualifier codings"}, "classifier": [{"coding": [{"system": "https://www.nlm.nih.gov/mesh", "code": "D011471", "display": "Prostatic Neoplasms", "userSelected": false}]}], "freeToShare": true, "component": [{"type": {"text": "qualifier"}, "classifier": [{"text": "is not a major topic"}]}, {"type": {"text": "qualifier"}, "classifier": [{"coding": [{"system": "https://www.nlm.nih.gov/mesh", "code": "Q000188", "display": "drug therapy"}]}], "component": [{"type": {"text": "is Major topic"}, "classifier": [{"coding": [{"system": "http://ncicb.nci.nih.gov/xml/owl/EVS/Thesaurus.owl", "code": "C49488", "display": "Yes"}]}]}]}, {"type": {"text": "qualifier"}, "classifier": [{"coding": [{"system": "https://www.nlm.nih.gov/mesh", "code": "Q000401", "display": "mortality"}]}], "component": [{"type": {"text": "is Major topic"}, "classifier": [{"coding": [{"system": "http://ncicb.nci.nih.gov/xml/owl/EVS/Thesaurus.owl", "code": "C49488", "display": "Yes"}]}]}]}, {"type": {"text": "qualifier"}, "classifier": [{"coding": [{"system": "https://www.nlm.nih.gov/mesh", "code": "Q000473", "display": "pathology"}]}], "component": [{"type": {"text": "is Major topic"}, "classifier": [{"coding": [{"system": "http://ncicb.nci.nih.gov/xml/owl/EVS/Thesaurus.owl", "code": "C49487", "display": "No"}]}]}]}]}, {"type": {"coding": [{"system": "http://terminology.hl7.org/CodeSystem/cited-artifact-classification-type", "code": "mesh-heading", "display": "MeSH heading"}], "text": "components (if present) include qualifier codings"}, "classifier": [{"coding": [{"system": "https://www.nlm.nih.gov/mesh", "code": "D016019", "display": "Survival Analysis", "userSelected": false}]}], "freeToShare": true, "component": [{"type": {"text": "qualifier"}, "classifier": [{"text": "is not a major topic"}]}]}, {"type": {"coding": [{"system": "http://terminology.hl7.org/CodeSystem/cited-artifact-classification-type", "code": "mesh-heading", "display": "MeSH heading"}], "text": "components (if present) include qualifier codings"}, "classifier": [{"coding": [{"system": "https://www.nlm.nih.gov/mesh", "code": "D043823", "display": "Taxoids", "userSelected": false}]}], "freeToShare": true, "component": [{"type": {"text": "qualifier"}, "classifier": [{"text": "is not a major topic"}]}, {"type": {"text": "qualifier"}, "classifier": [{"coding": [{"system": "https://www.nlm.nih.gov/mesh", "code": "Q000008", "display": "administration & dosage"}]}], "component": [{"type": {"text": "is Major topic"}, "classifier": [{"coding": [{"system": "http://ncicb.nci.nih.gov/xml/owl/EVS/Thesaurus.owl", "code": "C49487", "display": "No"}]}]}]}]}, {"type": {"coding": [{"system": "http://terminology.hl7.org/CodeSystem/cited-artifact-classification-type", "code": "mesh-heading", "display": "MeSH heading"}], "text": "components (if present) include qualifier codings"}, "classifier": [{"coding": [{"system": "https://www.nlm.nih.gov/mesh", "code": "D016896", "display": "Treatment Outcome", "userSelected": false}]}], "freeToShare": true, "component": [{"type": {"text": "qualifier"}, "classifier": [{"text": "is not a major topic"}]}]}]}], "useContext": [{"code": {"system": "http://terminology.hl7.org/CodeSystem/citation-classification-type", "code": "fevir-platform-use", "display": "FEvIR Platform Use"}, "valueCodeableConcept": {"coding": [{"system": "http://terminology.hl7.org/CodeSystem/citation-artifact-classifier", "code": "medline-base", "display": "Medline Base", "userSelected": false}]}}], "classification": [{"type": {"coding": [{"system": "http://terminology.hl7.org/CodeSystem/citation-classification-type", "code": "citation-source", "display": "Citation Source"}]}, "classifier": [{"text": "MEDLINE"}]}, {"type": {"coding": [{"system": "http://terminology.hl7.org/CodeSystem/citation-classification-type", "code": "medline-owner", "display": "MEDLINE Citation Owner"}]}, "classifier": [{"coding": [{"system": "https://www.nlm.nih.gov/bsd/licensee/elements_descriptions.html#owner_value", "code": "NLM", "display": "National Library of Medicine, Index Section", "userSelected": false}]}]}], "statusDate": [{"activity": {"coding": [{"system": "http://hl7.org/fhir/citation-status-type", "code": "pubmed-pubstatus-received", "display": "PubMed Pubstatus of Received"}]}, "period": {"end": "2015-04-15"}}, {"activity": {"coding": [{"system": "http://hl7.org/fhir/citation-status-type", "code": "pubmed-pubstatus-revised", "display": "PubMed Pubstatus of Revised"}]}, "period": {"end": "2015-05-06"}}, {"activity": {"coding": [{"system": "http://hl7.org/fhir/citation-status-type", "code": "pubmed-pubstatus-accepted", "display": "PubMed Pubstatus of Accepted"}]}, "period": {"end": "2015-05-08"}}, {"activity": {"coding": [{"system": "http://hl7.org/fhir/citation-status-type", "code": "pubmed-pubstatus-entrez", "display": "PubMed Pubstatus of Entrez"}]}, "period": {"end": "2015-06-02T06:00:00.000Z"}}, {"activity": {"coding": [{"system": "http://hl7.org/fhir/citation-status-type", "code": "pubmed-pubstatus-pubmed", "display": "PubMed Pubstatus of Pubmed"}]}, "period": {"end": "2015-06-02T06:00:00.000Z"}}, {"activity": {"coding": [{"system": "http://hl7.org/fhir/citation-status-type", "code": "pubmed-pubstatus-medline", "display": "PubMed Pubstatus of Medline"}]}, "period": {"end": "2015-09-29T06:00:00.000Z"}}], "citedArtifact": {"identifier": [{"system": "https://pubmed.ncbi.nlm.nih.gov", "value": "26028518"}, {"system": "https://doi.org", "value": "10.1016/S1470-2045(15)00011-X"}, {"type": {"text": "pii", "coding": [{"system": "http://terminology.hl7.org/CodeSystem/v2-0203", "code": "ACSN", "display": "Accession ID"}]}, "value": "S1470-2045(15)00011-X"}], "relatedIdentifier": [{"assigner": {"display": "ClinicalTrials.gov"}, "system": "https://clinicaltrials.gov", "value": "NCT00055731"}], "title": [{"text": "Androgen deprivation therapy plus docetaxel and estramustine versus androgen deprivation therapy alone for high-risk localised prostate cancer (GETUG 12): a phase 3 randomised controlled trial.", "language": {"coding": [{"system": "urn:ietf:bcp:47", "code": "en", "display": "English"}]}, "type": [{"coding": [{"system": "http://terminology.hl7.org/CodeSystem/title-type", "code": "primary", "display": "Primary title"}]}]}], "abstract": [{"type": {"coding": [{"system": "http://terminology.hl7.org/CodeSystem/cited-artifact-abstract-type", "code": "primary-human-use", "display": "Primary human use"}]}, "text": "**BACKGROUND:** Early risk-stratified chemotherapy is a standard treatment for breast, colorectal, and lung cancers, but not for high-risk localised prostate cancer. Combined docetaxel and estramustine improves survival in patients with castration-resistant prostate cancer. We assessed the effects of combined docetaxel and estramustine on relapse in patients with high-risk localised prostate cancer.\n**METHODS:** We did this randomised phase 3 trial at 26 hospitals in France. We enrolled patients with treatment-naive prostate cancer and at least one risk factor (ie, stage T3-T4 disease, Gleason score of \u22658, prostate-specific antigen concentration &gt;20 ng/mL, or pathological node-positive). All patients underwent a staging pelvic lymph node dissection. Patients were randomly assigned (1:1) to either androgen deprivation therapy (ADT; goserelin 10\u00b78 mg every 3 months for 3 years) plus four cycles of docetaxel on day 2 at a dose of 70 mg/m(2) and estramustine 10 mg/kg per day on days 1-5, every 3 weeks, or ADT only. The randomisation was done centrally by computer, stratified by risk factor. Local treatment was administered at 3 months. Neither patients nor investigators were masked to treatment allocation. The primary endpoint was relapse-free survival in the intention-to-treat population. Follow-up for other endpoints is ongoing. This study is registered with ClinicalTrials.gov, number NCT00055731.\n**FINDINGS:** We randomly assigned 207 patients to the ADT plus docetaxel and estramustine group and 206 to the ADT only group. Median follow-up was 8\u00b78 years (IQR 8\u00b71-9\u00b77). 88 (43%) of 207 patients in the ADT plus docetaxel and estramustine group had an event (relapse or death) versus 111 (54%) of 206 in the ADT only group. 8-year relapse-free survival was 62% (95% CI 55-69) in the ADT plus docetaxel and estramustine group versus 50% (44-57) in the ADT only group (adjusted hazard ratio [HR] 0\u00b771, 95% CI 0\u00b754-0\u00b794, p=0\u00b7017). Of patients who were treated with radiotherapy and had data available, 31 (21%) of 151 in the ADT plus docetaxel and estramustine group versus 26 (18%) of 143 in the ADT only group reported a grade 2 or higher long-term side-effect (p=0\u00b761). We recorded no excess second cancers (26 [13%] of 207 vs 22 [11%] of 206; p=0\u00b757), and there were no treatment-related deaths.\n**INTERPRETATION:** Docetaxel-based chemotherapy improves relapse-free survival in patients with high-risk localised prostate cancer. Longer follow-up is needed to assess whether this benefit translates into improved metastasis-free survival and overall survival.\n**FUNDING:** Ligue Contre le Cancer, Sanofi-Aventis, AstraZeneca, Institut National du Cancer.", "copyright": "Copyright \u00a9 2015 Elsevier Ltd. All rights reserved."}], "relatesTo": [{"type": "comment-in", "classifier": [{"coding": [{"system": "https://www.nlm.nih.gov/mesh", "code": "D016420", "display": "Comment", "userSelected": false}]}], "citation": "Lancet Oncol. 2015 Jul;16(7):741-2. doi: 10.1016/S1470-2045(15)00012-1.", "targetReference": {"identifier": {"system": "https://pubmed.ncbi.nlm.nih.gov", "value": "26028517", "assigner": {"display": "NLM"}}, "reference": "https://pubmed.ncbi.nlm.nih.gov/26028517/"}}, {"type": "comment-in", "classifier": [{"coding": [{"system": "https://www.nlm.nih.gov/mesh", "code": "D016420", "display": "Comment", "userSelected": false}]}], "citation": "Nat Rev Urol. 2015 Jul;12(7):358. doi: 10.1038/nrurol.2015.146.", "targetReference": {"identifier": {"system": "https://pubmed.ncbi.nlm.nih.gov", "value": "26077993", "assigner": {"display": "NLM"}}, "reference": "https://pubmed.ncbi.nlm.nih.gov/26077993/"}}, {"type": "comment-in", "classifier": [{"coding": [{"system": "https://www.nlm.nih.gov/mesh", "code": "D016420", "display": "Comment", "userSelected": false}]}], "citation": "Eur Urol. 2015 Dec;68(6):1098-9. doi: 10.1016/j.eururo.2015.08.047.", "targetReference": {"identifier": {"system": "https://pubmed.ncbi.nlm.nih.gov", "value": "26545569", "assigner": {"display": "NLM"}}, "reference": "https://pubmed.ncbi.nlm.nih.gov/26545569/"}}, {"type": "comment-in", "classifier": [{"coding": [{"system": "https://www.nlm.nih.gov/mesh", "code": "D016420", "display": "Comment", "userSelected": false}]}], "citation": "Nat Rev Clin Oncol. 2015 Dec;12(12):687-8. doi: 10.1038/nrclinonc.2015.192.", "targetReference": {"identifier": {"system": "https://pubmed.ncbi.nlm.nih.gov", "value": "26552950", "assigner": {"display": "NLM"}}, "reference": "https://pubmed.ncbi.nlm.nih.gov/26552950/"}}], "publicationForm": [{"publishedIn": {"type": {"coding": [{"system": "http://terminology.hl7.org/CodeSystem/published-in-type", "code": "D020492", "display": "Periodical"}]}, "identifier": [{"type": {"coding": [{"system": "https://www.nlm.nih.gov/bsd/licensee/elements_descriptions.html#issn", "code": "Electronic", "display": "Electronic"}], "text": "Electronic ISSN Type"}, "value": "1474-5488", "system": "https://portal.issn.org"}, {"type": {"text": "ISOAbbreviation", "coding": [{"system": "http://terminology.hl7.org/CodeSystem/v2-0203", "code": "XX", "display": "Organization identifier"}]}, "system": "https://www.issn.org/services/online-services/access-to-the-ltwa/", "value": "Lancet Oncol"}, {"type": {"text": "ISSN Linking", "coding": [{"system": "http://terminology.hl7.org/CodeSystem/v2-0203", "code": "XX", "display": "Organization identifier"}]}, "system": "https://www.issn.org/understanding-the-issn/assignment-rules/the-issn-l-for-publications-on-multiple-media/", "value": "1470-2045"}, {"type": {"text": "Medline Title Abbreviation", "coding": [{"system": "http://terminology.hl7.org/CodeSystem/v2-0203", "code": "XX", "display": "Organization identifier"}]}, "system": "https://www.nlm.nih.gov/tsd/cataloging/contructitleabbre.html", "value": "Lancet Oncol"}, {"type": {"text": "NLM Unique ID", "coding": [{"system": "http://terminology.hl7.org/CodeSystem/v2-0203", "code": "XX", "display": "Organization identifier"}]}, "system": "https://locatorplus.gov/cgi-bin/Pwebrecon.cgi?DB=local", "value": "100957246"}], "title": "The Lancet. Oncology", "publisherLocation": "England"}, "citedMedium": {"coding": [{"system": "http://terminology.hl7.org/CodeSystem/cited-medium", "code": "internet", "display": "Internet"}]}, "volume": "16", "issue": "7", "articleDate": "2015-07", "pageString": "787-94"}, {"citedMedium": {"coding": [{"system": "http://terminology.hl7.org/CodeSystem/cited-medium", "code": "internet-without-issue", "display": "Internet without issue"}]}, "articleDate": "2015-05-28"}], "webLocation": [{"classifier": [{"coding": [{"system": "http://terminology.hl7.org/CodeSystem/artifact-url-classifier", "code": "abstract", "display": "Abstract"}]}], "url": "https://pubmed.ncbi.nlm.nih.gov/26028518/"}, {"url": "https://doi.org/10.1016/S1470-2045(15)00011-X", "classifier": [{"coding": [{"system": "http://terminology.hl7.org/CodeSystem/artifact-url-classifier", "code": "doi-based", "display": "DOI Based"}]}]}], "classification": [{"type": {"coding": [{"system": "http://terminology.hl7.org/CodeSystem/cited-artifact-classification-type", "code": "publishing-model", "display": "Publishing Model", "userSelected": false}]}, "classifier": [{"coding": [{"system": "http://terminology.hl7.org/CodeSystem/citation-artifact-classifier", "code": "Print-Electronic", "display": "Print Electronic", "userSelected": false}]}]}, {"type": {"coding": [{"system": "http://terminology.hl7.org/CodeSystem/cited-artifact-classification-type", "code": "chemical", "display": "Chemical", "userSelected": false}]}, "classifier": [{"coding": [{"system": "https://www.nlm.nih.gov/mesh", "code": "D000726", "display": "Androgen Antagonists", "userSelected": false}]}, {"coding": [{"system": "https://www.nlm.nih.gov/mesh", "code": "D043823", "display": "Taxoids", "userSelected": false}]}, {"coding": [{"system": "https://www.cas.org/support/documentation/chemical-substances", "code": "15H5577CQD", "userSelected": false}, {"system": "https://www.nlm.nih.gov/mesh", "code": "D000077143", "display": "Docetaxel", "userSelected": false}]}, {"coding": [{"system": "https://www.cas.org/support/documentation/chemical-substances", "code": "35LT29625A", "userSelected": false}, {"system": "https://www.nlm.nih.gov/mesh", "code": "D004961", "display": "Estramustine", "userSelected": false}]}, {"coding": [{"system": "https://www.cas.org/support/documentation/chemical-substances", "code": "EC 3.4.21.77", "userSelected": false}, {"system": "https://www.nlm.nih.gov/mesh", "code": "D017430", "display": "Prostate-Specific Antigen", "userSelected": false}]}]}, {"type": {"coding": [{"system": "http://terminology.hl7.org/CodeSystem/cited-artifact-classification-type", "code": "mesh-heading", "display": "MeSH heading"}]}, "artifactAssessment": [{"reference": "#meshHeading0", "type": "ArtifactAssessment"}]}, {"type": {"coding": [{"system": "http://terminology.hl7.org/CodeSystem/cited-artifact-classification-type", "code": "publication-type", "display": "Publication type"}]}, "classifier": [{"coding": [{"system": "https://www.nlm.nih.gov/mesh", "code": "D017428", "display": "Clinical Trial, Phase III", "userSelected": false}]}, {"coding": [{"system": "https://www.nlm.nih.gov/mesh", "code": "D003160", "display": "Comparative Study", "userSelected": false}]}, {"coding": [{"system": "https://www.nlm.nih.gov/mesh", "code": "D016428", "display": "Journal Article", "userSelected": false}]}, {"coding": [{"system": "https://www.nlm.nih.gov/mesh", "code": "D016448", "display": "Multicenter Study", "userSelected": false}]}, {"coding": [{"system": "https://www.nlm.nih.gov/mesh", "code": "D016449", "display": "Randomized Controlled Trial", "userSelected": false}]}, {"coding": [{"system": "https://www.nlm.nih.gov/mesh", "code": "D013485", "display": "Research Support, Non-U.S. Gov't", "userSelected": false}]}]}, {"type": {"coding": [{"system": "http://terminology.hl7.org/CodeSystem/cited-artifact-classification-type", "code": "knowledge-artifact-type", "display": "Knowledge Artifact Type", "userSelected": false}]}, "classifier": [{"coding": [{"system": "http://terminology.hl7.org/CodeSystem/citation-artifact-classifier", "code": "D016428", "display": "Journal Article", "userSelected": false}]}], "artifactAssessment": [{"display": "Classifier added by Computable Publishing LLC"}]}, {"type": {"coding": [{"system": "http://terminology.hl7.org/CodeSystem/cited-artifact-classification-type", "code": "citation-subset", "display": "Citation subset", "userSelected": false}]}, "classifier": [{"coding": [{"system": "https://www.nlm.nih.gov/bsd/licensee/elements_descriptions.html#citationsubset", "code": "IM", "display": "IM", "userSelected": false}]}]}], "contributorship": {"entry": [{"contributor": {"reference": "#contributor0", "type": "Practitioner", "display": "Fizazi K"}, "forenameInitials": "K", "affiliation": [{"display": "Institut Gustave Roussy, Villejuif, France. Electronic address: karim.fizazi@gustaveroussy.fr."}]}, {"contributor": {"reference": "#contributor1", "type": "Practitioner", "display": "Faivre L"}, "forenameInitials": "L", "affiliation": [{"display": "Institut Gustave Roussy, Villejuif, France."}]}, {"contributor": {"reference": "#contributor2", "type": "Practitioner", "display": "Lesaunier F"}, "forenameInitials": "F", "affiliation": [{"display": "Centre Fran\u00e7ois Baclesse, Caen, France."}]}, {"contributor": {"reference": "#contributor3", "type": "Practitioner", "display": "Delva R"}, "forenameInitials": "R", "affiliation": [{"display": "Institut de Canc\u00e9rologie de l'Ouest, Angers, France."}]}, {"contributor": {"reference": "#contributor4", "type": "Practitioner", "display": "Gravis G"}, "forenameInitials": "G", "affiliation": [{"display": "Institut Paoli Calmettes, Marseille, France."}]}, {"contributor": {"reference": "#contributor5", "type": "Practitioner", "display": "Rolland F"}, "forenameInitials": "F", "affiliation": [{"display": "Institut de Canc\u00e9rologie de l'Ouest, Nantes, France."}]}, {"contributor": {"reference": "#contributor6", "type": "Practitioner", "display": "Priou F"}, "forenameInitials": "F", "affiliation": [{"display": "Centre Hospitalier D\u00e9partemental, La Roche-sur-Yon, France."}]}, {"contributor": {"reference": "#contributor7", "type": "Practitioner", "display": "Ferrero JM"}, "forenameInitials": "JM", "affiliation": [{"display": "Centre Antoine Lacassagne, Nice, France."}]}, {"contributor": {"reference": "#contributor8", "type": "Practitioner", "display": "Houede N"}, "forenameInitials": "N", "affiliation": [{"display": "Centre Hospitalier de Nimes, Nimes, France."}]}, {"contributor": {"reference": "#contributor9", "type": "Practitioner", "display": "Mourey L"}, "forenameInitials": "L", "affiliation": [{"display": "Institut Claudius Regaud, Toulouse, France."}]}, {"contributor": {"reference": "#contributor10", "type": "Practitioner", "display": "Theodore C"}, "forenameInitials": "C", "affiliation": [{"display": "H\u00f4pital Foch, Paris, France."}]}, {"contributor": {"reference": "#contributor11", "type": "Practitioner", "display": "Krakowski I"}, "forenameInitials": "I", "affiliation": [{"display": "Centre Alexis Vautrin, Nancy, France."}]}, {"contributor": {"reference": "#contributor12", "type": "Practitioner", "display": "Berdah JF"}, "forenameInitials": "JF", "affiliation": [{"display": "Clinique Sainte-Marguerite, Hy\u00e8res, France."}]}, {"contributor": {"reference": "#contributor13", "type": "Practitioner", "display": "Baciuchka M"}, "forenameInitials": "M", "affiliation": [{"display": "Centre Hospitalier La Timone, Marseille, France."}]}, {"contributor": {"reference": "#contributor14", "type": "Practitioner", "display": "Laguerre B"}, "forenameInitials": "B", "affiliation": [{"display": "Centre Eug\u00e8ne Marquis, Rennes, France."}]}, {"contributor": {"reference": "#contributor15", "type": "Practitioner", "display": "Fl\u00e9chon A"}, "forenameInitials": "A", "affiliation": [{"display": "Centre L\u00e9on B\u00e9rard, Lyon, France."}]}, {"contributor": {"reference": "#contributor16", "type": "Practitioner", "display": "Ravaud A"}, "forenameInitials": "A", "affiliation": [{"display": "H\u00f4pital Saint-Andr\u00e9, Bordeaux, France."}]}, {"contributor": {"reference": "#contributor17", "type": "Practitioner", "display": "Cojean-Zelek I"}, "forenameInitials": "I", "affiliation": [{"display": "Groupe Hospitalier Diaconesses Croix Saint-Simon, Paris, France."}]}, {"contributor": {"reference": "#contributor18", "type": "Practitioner", "display": "Oudard S"}, "forenameInitials": "S", "affiliation": [{"display": "H\u00f4pital Europ\u00e9en Georges Pompidou, Paris, France."}]}, {"contributor": {"reference": "#contributor19", "type": "Practitioner", "display": "Labourey JL"}, "forenameInitials": "JL", "affiliation": [{"display": "CHU Dupuytren, Limoges, France."}]}, {"contributor": {"reference": "#contributor20", "type": "Practitioner", "display": "Chinet-Charrot P"}, "forenameInitials": "P", "affiliation": [{"display": "Centre Henri Becquerel, Rouen, France."}]}, {"contributor": {"reference": "#contributor21", "type": "Practitioner", "display": "Legouffe E"}, "forenameInitials": "E", "affiliation": [{"display": "Centre M\u00e9dical Oncogard, Nimes, France."}]}, {"contributor": {"reference": "#contributor22", "type": "Practitioner", "display": "Lagrange JL"}, "forenameInitials": "JL", "affiliation": [{"display": "H\u00f4pital Henri-Mondor, Cr\u00e9teil, France."}]}, {"contributor": {"reference": "#contributor23", "type": "Practitioner", "display": "Linassier C"}, "forenameInitials": "C", "affiliation": [{"display": "H\u00f4pital Bretonneau, Tours, France."}]}, {"contributor": {"reference": "#contributor24", "type": "Practitioner", "display": "Deplanque G"}, "forenameInitials": "G", "affiliation": [{"display": "H\u00f4pital Saint-Joseph, Paris, France."}]}, {"contributor": {"reference": "#contributor25", "type": "Practitioner", "display": "Beuzeboc P"}, "forenameInitials": "P", "affiliation": [{"display": "Institut Curie, Paris, France."}]}, {"contributor": {"reference": "#contributor26", "type": "Practitioner", "display": "Davin JL"}, "forenameInitials": "JL", "affiliation": [{"display": "Clinique Sainte-Catherine, Avignon, France."}]}, {"contributor": {"reference": "#contributor27", "type": "Practitioner", "display": "Martin AL"}, "forenameInitials": "AL", "affiliation": [{"display": "Unicancer, Paris, France."}]}, {"contributor": {"reference": "#contributor28", "type": "Practitioner", "display": "Habibian M"}, "forenameInitials": "M", "affiliation": [{"display": "Unicancer, Paris, France."}]}, {"contributor": {"reference": "#contributor29", "type": "Practitioner", "display": "Laplanche A"}, "forenameInitials": "A", "affiliation": [{"display": "Institut Gustave Roussy, Villejuif, France."}]}, {"contributor": {"reference": "#contributor30", "type": "Practitioner", "display": "Culine S"}, "forenameInitials": "S", "affiliation": [{"display": "H\u00f4pital Saint-Louis, Paris, France."}]}], "complete": true}}, "approvalDate": "2015-09-28", "lastReviewDate": "2024-08-05", "currentState": [{"coding": [{"system": "http://hl7.org/fhir/citation-status-type", "code": "medline-medline", "display": "Medline Citation Status of Medline"}]}, {"coding": [{"system": "http://hl7.org/fhir/citation-status-type", "code": "pubmed-publication-status-ppublish", "display": "PubMed PublicationStatus of ppublish"}]}], "title": "26028518 Androgen deprivation therapy plus docetaxel and estramustine versus androgen deprivation therapy alone for high-risk localised prostate cancer (GETUG 12): a phase 3 randomised controlled trial.", "identifier": [{"type": {"text": "FEvIR Object Identifier", "coding": [{"system": "http://terminology.hl7.org/CodeSystem/v2-0203", "code": "ACSN", "display": "Accession ID"}]}, "system": "https://fevir.net/FOI", "value": "179621", "assigner": {"display": "Computable Publishing LLC"}}, {"system": "https://pubmed.ncbi.nlm.nih.gov", "value": "26028518"}], "status": "active", "url": "https://fevir.net/resources/Citation/179621", "id": "179621", "publisher": "Computable Publishing LLC", "copyright": "https://creativecommons.org/licenses/by-nc-sa/4.0/", "contact": [{"telecom": [{"system": "email", "value": "support@computablepublishing.com"}]}], "author": [{"name": "Computable Publishing\u00ae: MEDLINE-to-FEvIR Converter"}], "extension": [{"url": "http://hl7.org/fhir/uv/ebm/StructureDefinition/artifact-publication-status", "valueCodeableConcept": {"coding": [{"system": "http://terminology.hl7.org/CodeSystem/cited-artifact-status-type", "code": "active", "display": "Active"}]}}], "description": "This Citation Resource is referenced in an example for the EBMonFHIR Implementation Guide."}