{"id": "7638", "url": "https://fevir.net/resources/Citation/7638", "date": "2022-01-10T13:30:43.053Z", "meta": {"versionId": "39", "lastUpdated": "2025-10-13T16:59:33.089Z"}, "title": "Citation for FEvIR Evidence 7637: Critically appraised summary of primary outcome of multi-platform RCT of anticoagulation for non-critically ill COVID-19", "author": [{"name": "Brian S. Alper"}], "status": "active", "contact": [{"telecom": [{"value": "support@computablepublishing.com", "system": "email"}]}], "summary": [{"text": "Critically appraised summary of primary outcome of multi-platform RCT of anticoagulation for non-critically ill patients with COVID-19 [FHIR Resource]. Contributors:  Brian S Alper,  Harold Lehmann,  Ahmad Sofi-Mahmudi,  Joanne Dehnbostel,  Ilkka Kunnamo [Authors];  Janice Tufte,  Vignesh Subbian,  Bhagvan Kommadi,  Alfonso Iorio,  Muhammad Afzal,  Kenneth J Wilkins,  Surbhi Shah,  Amy Price [Reviewers]. In: Fast Evidence Interoperability Resources (FEvIR) Platform, FOI 7637. Published August 05, 2021. Created August 05, 2021. Revised August 25, 2021. Available at: https://fevir.net/resources/Evidence/7637. Computable resource at: https://fevir.net/resources/Evidence/7637.", "style": {"coding": [{"code": "comppub", "system": "http://terminology.hl7.org/CodeSystem/citation-summary-style", "display": "Computable Publishing"}]}}], "contained": [{"id": "contributor0", "name": [{"given": ["Brian S"], "family": "Alper"}], "telecom": [{"value": "balper@computablepublishing.com", "system": "email"}], "identifier": [{"value": "0000-0003-4300-4928", "system": "https://orcid.org/"}], "resourceType": "Practitioner"}, {"id": "contributor1", "name": [{"given": ["Janice"], "family": "Tufte"}], "telecom": [{"value": "hassanahseattle@gmail.com", "system": "email"}], "identifier": [{"value": "0000-0002-4346-3238", "system": "https://orcid.org/"}], "resourceType": "Practitioner"}, {"id": "contributor2", "name": [{"given": ["Harold"], "family": "Lehmann"}], "telecom": [{"value": "lehmann@jhmi.edu", "system": "email"}], "resourceType": "Practitioner"}, {"id": "contributor3", "name": [{"given": ["Ahmad"], "family": "Sofi-Mahmudi"}], "telecom": [{"value": "a.sofimahmudi@gmail.com", "system": "email"}], "resourceType": "Practitioner"}, {"id": "contributor4", "name": [{"given": ["Joanne"], "family": "Dehnbostel"}], "telecom": [{"value": "jdehnbostel@computablepublishing.com", "system": "email"}], "resourceType": "Practitioner"}, {"id": "contributor5", "name": [{"given": ["Vignesh"], "family": "Subbian"}], "telecom": [{"value": "vsubbian@arizona.edu", "system": "email"}], "resourceType": "Practitioner"}, {"id": "contributor6", "name": [{"given": ["Ilkka"], "family": "Kunnamo"}], "telecom": [{"value": "ilkka.kunnamo@duodecim.fi", "system": "email"}], "identifier": [{"value": "0000-0002-4817-6991", "system": "https://orcid.org/"}], "resourceType": "Practitioner"}, {"id": "contributor7", "name": [{"given": ["Bhagvan"], "family": "Kommadi"}], "telecom": [{"value": "bhagvanarch@gmail.com", "system": "email"}], "resourceType": "Practitioner"}, {"id": "contributor8", "name": [{"given": ["Alfonso"], "family": "Iorio"}], "resourceType": "Practitioner"}, {"id": "contributor9", "name": [{"given": ["Muhammad"], "family": "Afzal"}], "telecom": [{"value": "afzalse@gmail.com", "system": "email"}], "resourceType": "Practitioner"}, {"id": "contributor10", "name": [{"given": ["Kenneth J"], "family": "Wilkins"}], "resourceType": "Practitioner"}, {"id": "contributor11", "name": [{"given": ["Surbhi"], "family": "Shah"}], "resourceType": "Practitioner"}, {"id": "contributor12", "name": [{"given": ["Amy"], "family": "Price"}], "resourceType": "Practitioner"}], "copyright": "https://creativecommons.org/licenses/by-nc-sa/4.0/", "extension": [{"url": "http://hl7.org/fhir/uv/ebm/StructureDefinition/artifact-publication-status", "valueCodeableConcept": {"coding": [{"code": "active", "system": "http://terminology.hl7.org/CodeSystem/cited-artifact-status-type", "display": "Active"}]}}], "publisher": "Computable Publishing LLC", "identifier": [{"type": {"text": "FEvIR Object Identifier", "coding": [{"code": "ACSN", "system": "http://terminology.hl7.org/CodeSystem/v2-0203", "display": "Accession ID"}]}, "value": "7638", "system": "https://fevir.net/FOI", "assigner": {"display": "Computable Publishing LLC"}}], "useContext": [{"code": {"code": "program", "system": "http://terminology.hl7.org/CodeSystem/usage-context-type", "display": "Program"}, "valueCodeableConcept": {"text": "EBMonFHIR/COKA Demonstration"}}, {"code": {"code": "fevir-platform-use", "system": "http://terminology.hl7.org/CodeSystem/citation-classification-type", "display": "FEvIR Platform Use"}, "valueCodeableConcept": {"text": "Evidence", "coding": [{"code": "fhir-resource", "system": "http://terminology.hl7.org/CodeSystem/citation-artifact-classifier", "display": "FHIR Resource"}]}}], "description": "A Evidence Resource to demonstrate complex evidence reporting", "resourceType": "Citation", "citedArtifact": {"title": [{"text": "Critically appraised summary of primary outcome of multi-platform RCT of anticoagulation for non-critically ill patients with COVID-19", "type": [{"coding": [{"code": "primary", "system": "http://terminology.hl7.org/CodeSystem/title-type", "display": "Primary title"}]}, {"coding": [{"code": "human-use", "system": "http://terminology.hl7.org/CodeSystem/title-type", "display": "Human use"}]}], "language": {"coding": [{"system": "urn:ietf:bcp:47", "code": "en", "display": "English"}]}}, {"text": "Critically appraised summary of primary outcome of multi-platform RCT of anticoagulation for non-critically ill COVID-19", "type": [{"coding": [{"code": "earlier-title", "system": "http://terminology.hl7.org/CodeSystem/title-type", "display": "Different text in an earlier version"}]}], "language": {"coding": [{"system": "urn:ietf:bcp:47", "code": "en", "display": "English"}]}}], "abstract": [{"text": "Patients who were hospitalized for COVID-19 and who were not critically ill were randomized in a response-adaptive manner to therapeutic-dose anticoagulation with heparin vs. usual-care pharmacologic thromboprophylaxis. The outcome reported here is the effect on organ support-free days (i.e. days without oxygen delivered by high-flow nasal cannula, noninvasive or invasive mechanical ventilation, or the use of vasopressors or inotropes). The statistical result was a median adjusted odds ratio 1.27 (95% credible interval 1.03 to 1.58), based on 1,740 events among 2,219 participants with known outcome out of 2,244 enrolled participants. The probability of superiority of therapeutic-dose anticoagulation with heparin was 98.6%. The risk of bias in this effect estimate is of extremely serious concern based on a serious concern for confounding covariate bias (confounding difference in calendar time), a very serious concern for performance bias (inadequate blinding of intervention deliverers who may determine the outcome based in part on exposure status), and very serious concern for analysis bias (bias related to selection of the analysis, and early trial termination).", "type": {"text": "Description"}, "language": {"coding": [{"system": "urn:ietf:bcp:47", "code": "en", "display": "English"}]}}, {"text": "It is uncertain whether therapeutic-dose anticoagulation with heparin affects the rate of organ support-free days in hospitalized patients with COVID-19 who are not critically ill.", "type": {"text": "Assertion"}, "language": {"coding": [{"system": "urn:ietf:bcp:47", "code": "en", "display": "English"}]}}], "relatesTo": [{"type": "cites", "citation": "Therapeutic Anticoagulation with Heparin in Noncritically Ill Patients with Covid-19 [Journal Article]. Contributors: The ATTACC, ACTIV-4a, and REMAP-CAP Investigators. In: The New England Journal of Medicine, DOI 10.1056/NEJMoa2105911. Published August 04, 2021. Available at: https://doi.org/10.1056/NEJMoa2105911.", "classifier": [{"coding": [{"code": "D016428", "system": "http://hl7.org/fhir/citation-artifact-classifier", "display": "Journal Article"}]}], "targetReference": {"reference": "https://fevir.net/resources/Citation/7636", "identifier": {"type": {"text": "FEvIR Object Identifier", "coding": [{"system": "http://terminology.hl7.org/CodeSystem/v2-0203", "code": "ACSN", "display": "Accession ID"}]}, "value": "7636", "system": "https://fevir.net", "assigner": {"display": "Computable Publishing LLC"}}}}], "identifier": [{"type": {"text": "FEvIR Object Identifier", "coding": [{"system": "http://terminology.hl7.org/CodeSystem/v2-0203", "code": "ACSN", "display": "Accession ID"}]}, "value": "7637", "system": "https://fevir.net", "assigner": {"display": "Computable Publishing LLC"}}], "statusDate": [{"actual": true, "period": {"start": "2021-08-05"}, "activity": {"coding": [{"code": "created", "system": "http://terminology.hl7.org/CodeSystem/cited-artifact-status-type", "display": "Created"}]}}], "webLocation": [{"url": "https://fevir.net/resources/Evidence/7637", "classifier": [{"coding": [{"code": "computable-resource", "system": "http://terminology.hl7.org/CodeSystem/artifact-url-classifier", "display": "Computable resource"}]}, {"coding": [{"code": "json", "system": "http://terminology.hl7.org/CodeSystem/artifact-url-classifier", "display": "JSON"}]}]}], "classification": [{"type": {"coding": [{"code": "knowledge-artifact-type", "system": "http://terminology.hl7.org/CodeSystem/cited-artifact-classification-type", "display": "Knowledge Artifact Type"}]}, "classifier": [{"text": "FHIR Resource", "coding": [{"code": "fhir-resource", "system": "http://terminology.hl7.org/CodeSystem/citation-artifact-classifier", "display": "FHIR Resource"}]}]}, {"type": {"text": "fhir-resource"}, "classifier": [{"text": "Evidence", "coding": [{"code": "Evidence", "system": "http://hl7.org/fhir/fhir-types", "display": "Evidence"}]}]}], "contributorship": {"entry": [{"keep": true, "role": {"coding": [{"code": "author", "system": "http://terminology.hl7.org/CodeSystem/contributor-role", "display": "Author/Creator"}]}, "affiliation": [{"display": "Computable Publishing LLC"}, {"display": "Scientific Knowledge Accelerator Foundation"}, {"display": "COVID-19 Knowledge Accelerator"}], "contributor": {"type": "Practitioner", "reference": "#contributor0"}, "contributionType": [{"coding": [{"code": "conceptualization", "system": "http://terminology.hl7.org/CodeSystem/cited-artifact-contribution-type", "display": "Conceptualization"}]}, {"coding": [{"code": "data-curation", "system": "http://terminology.hl7.org/CodeSystem/cited-artifact-contribution-type", "display": "Data curation"}]}, {"coding": [{"code": "investigation", "system": "http://terminology.hl7.org/CodeSystem/cited-artifact-contribution-type", "display": "Investigation"}]}, {"coding": [{"code": "methodology", "system": "http://terminology.hl7.org/CodeSystem/cited-artifact-contribution-type", "display": "Methodology"}]}, {"coding": [{"code": "software", "system": "http://terminology.hl7.org/CodeSystem/cited-artifact-contribution-type", "display": "Software"}]}, {"coding": [{"code": "writing-original-draft", "system": "http://terminology.hl7.org/CodeSystem/cited-artifact-contribution-type", "display": "Writing - original draft"}]}], "forenameInitials": "BS", "contributionInstance": [{"time": "2021-08-05", "type": {"text": "defined-in-text"}}], "correspondingContact": true}, {"keep": true, "role": {"coding": [{"code": "reviewer", "system": "http://terminology.hl7.org/CodeSystem/contributor-role", "display": "Reviewer"}]}, "affiliation": [{"display": "Hassanah Consulting"}], "contributor": {"type": "Practitioner", "reference": "#contributor1"}, "contributionType": [{"coding": [{"code": "writing-review-editing", "system": "http://terminology.hl7.org/CodeSystem/cited-artifact-contribution-type", "display": "Writing - review & editing"}]}, {"coding": [{"code": "formal-analysis", "system": "http://terminology.hl7.org/CodeSystem/cited-artifact-contribution-type", "display": "Formal analysis"}]}, {"coding": [{"code": "investigation", "system": "http://terminology.hl7.org/CodeSystem/cited-artifact-contribution-type", "display": "Investigation"}]}, {"coding": [{"code": "validation", "system": "http://terminology.hl7.org/CodeSystem/cited-artifact-contribution-type", "display": "Validation"}]}], "contributionInstance": [{"time": "2021-08-05", "type": {"coding": [{"code": "reviewed", "system": "http://terminology.hl7.org/CodeSystem/artifact-contribution-instance-type", "display": "Reviewed"}]}}, {"time": "2021-08-06", "type": {"coding": [{"code": "reviewed", "system": "http://terminology.hl7.org/CodeSystem/artifact-contribution-instance-type", "display": "Reviewed"}]}}]}, {"keep": true, "role": {"coding": [{"code": "author", "system": "http://terminology.hl7.org/CodeSystem/contributor-role", "display": "Author/Creator"}]}, "affiliation": [{"display": "Johns Hopkins University"}], "contributor": {"type": "Practitioner", "reference": "#contributor2"}, "contributionType": [{"coding": [{"code": "investigation", "system": "http://terminology.hl7.org/CodeSystem/cited-artifact-contribution-type", "display": "Investigation"}]}, {"coding": [{"code": "methodology", "system": "http://terminology.hl7.org/CodeSystem/cited-artifact-contribution-type", "display": "Methodology"}]}, {"coding": [{"code": "writing-original-draft", "system": "http://terminology.hl7.org/CodeSystem/cited-artifact-contribution-type", "display": "Writing - original draft"}]}]}, {"keep": true, "role": {"coding": [{"code": "author", "system": "http://terminology.hl7.org/CodeSystem/contributor-role", "display": "Author/Creator"}]}, "affiliation": [{"display": "Cochrane Iran Associate Centre"}], "contributor": {"type": "Practitioner", "reference": "#contributor3"}, "contributionType": [{"coding": [{"code": "investigation", "system": "http://terminology.hl7.org/CodeSystem/cited-artifact-contribution-type", "display": "Investigation"}]}, {"coding": [{"code": "methodology", "system": "http://terminology.hl7.org/CodeSystem/cited-artifact-contribution-type", "display": "Methodology"}]}, {"coding": [{"code": "validation", "system": "http://terminology.hl7.org/CodeSystem/cited-artifact-contribution-type", "display": "Validation"}]}, {"coding": [{"code": "writing-review-editing", "system": "http://terminology.hl7.org/CodeSystem/cited-artifact-contribution-type", "display": "Writing - review & editing"}]}]}, {"keep": true, "role": {"coding": [{"code": "author", "system": "http://terminology.hl7.org/CodeSystem/contributor-role", "display": "Author/Creator"}]}, "affiliation": [{"display": "Computable Publishing LLC"}], "contributor": {"type": "Practitioner", "reference": "#contributor4"}, "contributionType": [{"coding": [{"code": "project-administration", "system": "http://terminology.hl7.org/CodeSystem/cited-artifact-contribution-type", "display": "Project administration"}]}, {"coding": [{"code": "investigation", "system": "http://terminology.hl7.org/CodeSystem/cited-artifact-contribution-type", "display": "Investigation"}]}, {"coding": [{"code": "writing-review-editing", "system": "http://terminology.hl7.org/CodeSystem/cited-artifact-contribution-type", "display": "Writing - review & editing"}]}]}, {"keep": true, "role": {"coding": [{"code": "reviewer", "system": "http://terminology.hl7.org/CodeSystem/contributor-role", "display": "Reviewer"}]}, "affiliation": [{"display": "University of Arizona"}], "contributor": {"type": "Practitioner", "reference": "#contributor5"}, "contributionType": [{"coding": [{"code": "formal-analysis", "system": "http://terminology.hl7.org/CodeSystem/cited-artifact-contribution-type", "display": "Formal analysis"}]}, {"coding": [{"code": "investigation", "system": "http://terminology.hl7.org/CodeSystem/cited-artifact-contribution-type", "display": "Investigation"}]}, {"coding": [{"code": "writing-review-editing", "system": "http://terminology.hl7.org/CodeSystem/cited-artifact-contribution-type", "display": "Writing - review & editing"}]}], "contributionInstance": [{"time": "2021-08-07", "type": {"coding": [{"code": "reviewed", "system": "http://terminology.hl7.org/CodeSystem/artifact-contribution-instance-type", "display": "Reviewed"}]}}]}, {"keep": true, "role": {"coding": [{"code": "author", "system": "http://terminology.hl7.org/CodeSystem/contributor-role", "display": "Author/Creator"}]}, "affiliation": [{"display": "Duodecim Medical Publications Ltd., Finland"}, {"display": "Scientific Knowledge Accelerator Foundation"}], "contributor": {"type": "Practitioner", "reference": "#contributor6"}, "contributionType": [{"coding": [{"code": "writing-review-editing", "system": "http://terminology.hl7.org/CodeSystem/cited-artifact-contribution-type", "display": "Writing - review & editing"}]}], "contributionInstance": [{"time": "2021-08-09", "type": {"coding": [{"code": "reviewed", "system": "http://terminology.hl7.org/CodeSystem/artifact-contribution-instance-type", "display": "Reviewed"}]}}]}, {"keep": true, "role": {"coding": [{"code": "reviewer", "system": "http://terminology.hl7.org/CodeSystem/contributor-role", "display": "Reviewer"}]}, "affiliation": [{"display": "Value Momentum"}], "contributor": {"type": "Practitioner", "reference": "#contributor7"}, "contributionType": [{"coding": [{"code": "methodology", "system": "http://terminology.hl7.org/CodeSystem/cited-artifact-contribution-type", "display": "Methodology"}]}, {"coding": [{"code": "validation", "system": "http://terminology.hl7.org/CodeSystem/cited-artifact-contribution-type", "display": "Validation"}]}]}, {"keep": true, "role": {"coding": [{"code": "reviewer", "system": "http://terminology.hl7.org/CodeSystem/contributor-role", "display": "Reviewer"}]}, "affiliation": [{"display": "McMaster University"}], "contributor": {"type": "Practitioner", "reference": "#contributor8"}, "contributionType": [{"coding": [{"code": "formal-analysis", "system": "http://terminology.hl7.org/CodeSystem/cited-artifact-contribution-type", "display": "Formal analysis"}]}, {"coding": [{"code": "writing-review-editing", "system": "http://terminology.hl7.org/CodeSystem/cited-artifact-contribution-type", "display": "Writing - review & editing"}]}]}, {"keep": true, "role": {"coding": [{"code": "reviewer", "system": "http://terminology.hl7.org/CodeSystem/contributor-role", "display": "Reviewer"}]}, "affiliation": [{"display": "Sejong University, Seoul, South Korea"}], "contributor": {"type": "Practitioner", "reference": "#contributor9"}, "contributionType": [{"coding": [{"code": "formal-analysis", "system": "http://terminology.hl7.org/CodeSystem/cited-artifact-contribution-type", "display": "Formal analysis"}]}, {"coding": [{"code": "writing-review-editing", "system": "http://terminology.hl7.org/CodeSystem/cited-artifact-contribution-type", "display": "Writing - review & editing"}]}]}, {"keep": true, "role": {"coding": [{"code": "reviewer", "system": "http://terminology.hl7.org/CodeSystem/contributor-role", "display": "Reviewer"}]}, "affiliation": [{"display": "National Institute of Diabetes & Digestive & Kidney Diseases"}], "contributor": {"type": "Practitioner", "reference": "#contributor10"}, "contributionType": [{"coding": [{"code": "formal-analysis", "system": "http://terminology.hl7.org/CodeSystem/cited-artifact-contribution-type", "display": "Formal analysis"}]}, {"coding": [{"code": "writing-review-editing", "system": "http://terminology.hl7.org/CodeSystem/cited-artifact-contribution-type", "display": "Writing - review & editing"}]}]}, {"keep": true, "role": {"coding": [{"code": "reviewer", "system": "http://terminology.hl7.org/CodeSystem/contributor-role", "display": "Reviewer"}]}, "affiliation": [{"display": "Mayo Clinic Arizona"}], "contributor": {"type": "Practitioner", "reference": "#contributor11"}, "contributionType": [{"coding": [{"code": "writing-review-editing", "system": "http://terminology.hl7.org/CodeSystem/cited-artifact-contribution-type", "display": "Writing - review & editing"}]}, {"text": "defined-in-text"}]}, {"keep": true, "role": {"coding": [{"code": "reviewer", "system": "http://terminology.hl7.org/CodeSystem/contributor-role", "display": "Reviewer"}]}, "contributor": {"type": "Practitioner", "reference": "#contributor12"}, "contributionType": [{"coding": [{"code": "writing-review-editing", "system": "http://terminology.hl7.org/CodeSystem/cited-artifact-contribution-type", "display": "Writing - review & editing"}]}]}], "complete": true}, "publicationForm": [{"language": [{"coding": [{"system": "urn:ietf:bcp:47", "code": "en", "display": "English"}]}], "copyright": "https://creativecommons.org/licenses/by-nc-sa/4.0/", "articleDate": "2021-08-05", "publishedIn": {"type": {"coding": [{"code": "D019991", "system": "http://terminology.hl7.org/CodeSystem/published-in-type", "display": "Database"}]}, "title": "Fast Evidence Interoperability Resources (FEvIR) Platform", "publisher": {"type": "Organization", "display": "Computable Publishing LLC"}, "publisherLocation": "Franklin, NC, USA"}, "lastRevisionDate": "2021-08-25"}], "relatedIdentifier": [{"value": "10.1056/NEJMoa2105911", "system": "https://doi.org"}]}, "classification": [{"type": {"coding": [{"code": "fevir-platform-use", "system": "http://terminology.hl7.org/CodeSystem/citation-classification-type", "display": "FEvIR Platform Use"}]}, "classifier": [{"coding": [{"code": "project-specific", "system": "http://terminology.hl7.org/CodeSystem/citation-artifact-classifier", "display": "Project Specific"}]}]}]}