{"resourceType": "Citation", "meta": {"profile": ["http://hl7.org/fhir/uv/ebm/StructureDefinition/web-page-citation"], "versionId": "4", "lastUpdated": "2025-10-11T21:20:49.915Z"}, "title": "WebPageCitation: A HEvKA Update Summary", "citedArtifact": {"classification": [{"type": {"coding": [{"system": "http://terminology.hl7.org/CodeSystem/cited-artifact-classification-type", "code": "knowledge-artifact-type", "display": "Knowledge Artifact Type"}]}, "classifier": [{"coding": [{"system": "http://terminology.hl7.org/CodeSystem/citation-artifact-classifier", "code": "webpage", "display": "Webpage"}]}]}], "identifier": [{"type": {"text": "URL", "coding": [{"system": "http://terminology.hl7.org/CodeSystem/v2-0203", "code": "FILL", "display": "Filler Identifier"}]}, "value": "https://confluence.hl7.org/display/CDS/A+HEvKA+Update+Summary"}], "publicationForm": [{"publishedIn": {"identifier": [{"type": {"text": "URL", "coding": [{"system": "http://terminology.hl7.org/CodeSystem/v2-0203", "code": "FILL", "display": "Filler Identifier"}]}, "value": "https://confluence.hl7.org/"}], "title": "Confluence Pages of Health Level 7 (HL7) International", "type": {"coding": [{"system": "http://terminology.hl7.org/CodeSystem/published-in-type", "code": "D019991", "display": "Database"}], "text": "Website"}}, "citedMedium": {"coding": [{"system": "http://terminology.hl7.org/CodeSystem/cited-medium", "code": "Internet", "display": "Internet"}]}}], "webLocation": [{"classifier": [{"coding": [{"system": "http://terminology.hl7.org/CodeSystem/artifact-url-classifier", "code": "webpage", "display": "Webpage"}]}], "url": "https://confluence.hl7.org/display/CDS/A+HEvKA+Update+Summary"}], "dateAccessed": "2023-11-25", "title": [{"type": [{"coding": [{"system": "http://terminology.hl7.org/CodeSystem/title-type", "code": "primary", "display": "Primary title"}]}], "language": {"coding": [{"system": "urn:ietf:bcp:47", "code": "en", "display": "English"}]}, "text": "A HEvKA Update Summary"}], "contributorship": {"complete": true, "entry": [{"contributor": {"reference": "#contributor0", "type": "Practitioner"}, "affiliation": [{"display": "Computable Publishing LLC"}, {"display": "Scientific Knowledge Accelerator Foundation"}], "correspondingContact": true, "role": {"coding": [{"system": "http://hl7.org/fhir/contributor-role", "code": "author", "display": "Author/Creator"}]}}, {"contributor": {"reference": "#contributor1", "type": "Practitioner"}, "affiliation": [{"display": "Computable Publishing LLC"}, {"display": "Scientific Knowledge Accelerator Foundation"}], "role": {"coding": [{"system": "http://hl7.org/fhir/contributor-role", "code": "author", "display": "Author/Creator"}]}}, {"contributor": {"reference": "#contributor2", "type": "Practitioner"}, "affiliation": [{"display": "Computable Publishing LLC"}, {"display": "Scientific Knowledge Accelerator Foundation"}], "role": {"coding": [{"system": "http://hl7.org/fhir/contributor-role", "code": "author", "display": "Author/Creator"}]}}]}}, "status": "active", "url": "https://fevir.net/resources/Citation/179561", "id": "179561", "identifier": [{"type": {"text": "FEvIR Object Identifier", "coding": [{"system": "http://terminology.hl7.org/CodeSystem/v2-0203", "code": "ACSN", "display": "Accession ID"}]}, "system": "https://fevir.net/FOI", "value": "179561", "assigner": {"display": "Computable Publishing LLC"}}], "publisher": "Computable Publishing LLC", "copyright": "https://creativecommons.org/licenses/by-nc-sa/4.0/", "contact": [{"telecom": [{"system": "email", "value": "support@computablepublishing.com"}]}], "author": [{"name": "Brian S. Alper"}], "contained": [{"resourceType": "Practitioner", "id": "contributor0", "name": [{"family": "Dehnbostel", "given": ["Joanne"]}], "telecom": [{"system": "email", "value": "jdehnbostel@computablepublishing.com"}]}, {"resourceType": "Practitioner", "id": "contributor1", "name": [{"family": "Alper", "given": ["Brian S."]}]}, {"resourceType": "Practitioner", "id": "contributor2", "name": [{"family": "Shahin", "given": ["Khalid"]}]}], "summary": [{"style": {"coding": [{"system": "http://hl7.org/fhir/citation-summary-style", "code": "comppub", "display": "Computable Publishing"}]}, "text": "A HEvKA Update Summary [Webpage]. Contributors:  Joanne Dehnbostel,  Brian S. Alper,  Khalid Shahin [Authors]. In: Confluence Pages of Health Level 7 (HL7) International, URL https://confluence.hl7.org/display/CDS/A+HEvKA+Update+Summary. Accessed November 25, 2023. Available at: https://confluence.hl7.org/display/CDS/A+HEvKA+Update+Summary."}], "extension": [{"url": "http://hl7.org/fhir/uv/ebm/StructureDefinition/artifact-publication-status", "valueCodeableConcept": {"coding": [{"system": "http://terminology.hl7.org/CodeSystem/cited-artifact-status-type", "code": "active", "display": "Active"}]}}], "description": "This Citation Resource is referenced in an example for the EBMonFHIR Implementation Guide."}