{"id": "33089", "url": "https://fevir.net/resources/Citation/33089", "meta": {"profile": ["http://hl7.org/fhir/uv/ebm/StructureDefinition/journal-article-citation"], "versionId": "20", "lastUpdated": "2025-10-13T12:34:35.118Z"}, "title": "27222544 Metabolic Surgery in the Treatment Algorithm for Type 2 Diabetes: A Joint Statement by International Diabetes Organizations.", "author": [{"name": "Computable Publishing\u00ae: MEDLINE-to-FEvIR Converter"}], "status": "active", "contact": [{"telecom": [{"value": "support@computablepublishing.com", "system": "email"}]}], "contained": [{"id": "contributor0", "name": [{"given": ["Francesco"], "family": "Rubino"}], "resourceType": "Practitioner"}, {"id": "contributor1", "name": [{"given": ["David M"], "family": "Nathan"}], "resourceType": "Practitioner"}, {"id": "contributor2", "name": [{"given": ["Robert H"], "family": "Eckel"}], "resourceType": "Practitioner"}, {"id": "contributor3", "name": [{"given": ["Philip R"], "family": "Schauer"}], "resourceType": "Practitioner"}, {"id": "contributor4", "name": [{"given": ["K George M M"], "family": "Alberti"}], "resourceType": "Practitioner"}, {"id": "contributor5", "name": [{"given": ["Paul Z"], "family": "Zimmet"}], "resourceType": "Practitioner"}, {"id": "contributor6", "name": [{"given": ["Stefano"], "family": "Del Prato"}], "resourceType": "Practitioner"}, {"id": "contributor7", "name": [{"given": ["Linong"], "family": "Ji"}], "resourceType": "Practitioner"}, {"id": "contributor8", "name": [{"given": ["Shaukat M"], "family": "Sadikot"}], "resourceType": "Practitioner"}, {"id": "contributor9", "name": [{"given": ["William H"], "family": "Herman"}], "resourceType": "Practitioner"}, {"id": "contributor10", "name": [{"given": ["Stephanie A"], "family": "Amiel"}], "resourceType": "Practitioner"}, {"id": "contributor11", "name": [{"given": ["Lee M"], "family": "Kaplan"}], "resourceType": "Practitioner"}, {"id": "contributor12", "name": [{"given": ["Gaspar"], "family": "Taroncher-Oldenburg"}], "resourceType": "Practitioner"}, {"id": "contributor13", "name": [{"given": ["David E"], "family": "Cummings"}], "resourceType": "Practitioner"}, {"id": "contributor14", "name": "Delegates of the 2nd Diabetes Surgery Summit", "resourceType": "Organization"}, {"id": "meshHeading0", "content": [{"type": {"text": "components (if present) include qualifier codings", "coding": [{"code": "mesh-heading", "system": "http://terminology.hl7.org/CodeSystem/cited-artifact-classification-type", "display": "MeSH heading"}]}, "component": [{"type": {"text": "qualifier"}, "classifier": [{"text": "is Major topic"}]}], "classifier": [{"coding": [{"code": "D000465", "system": "https://www.nlm.nih.gov/mesh", "display": "Algorithms", "userSelected": false}]}], "freeToShare": true}, {"type": {"text": "components (if present) include qualifier codings", "coding": [{"code": "mesh-heading", "system": "http://terminology.hl7.org/CodeSystem/cited-artifact-classification-type", "display": "MeSH heading"}]}, "component": [{"type": {"text": "qualifier"}, "classifier": [{"text": "is not a major topic"}]}, {"type": {"text": "qualifier"}, "component": [{"type": {"text": "is Major topic"}, "classifier": [{"coding": [{"code": "C49488", "system": "http://ncicb.nci.nih.gov/xml/owl/EVS/Thesaurus.owl", "display": "Yes"}]}]}], "classifier": [{"coding": [{"code": "Q000592", "system": "https://www.nlm.nih.gov/mesh", "display": "standards"}]}]}], "classifier": [{"coding": [{"code": "D050110", "system": "https://www.nlm.nih.gov/mesh", "display": "Bariatric Surgery", "userSelected": false}]}], "freeToShare": true}, {"type": {"text": "components (if present) include qualifier codings", "coding": [{"code": "mesh-heading", "system": "http://terminology.hl7.org/CodeSystem/cited-artifact-classification-type", "display": "MeSH heading"}]}, "component": [{"type": {"text": "qualifier"}, "classifier": [{"text": "is not a major topic"}]}, {"type": {"text": "qualifier"}, "component": [{"type": {"text": "is Major topic"}, "classifier": [{"coding": [{"code": "C49487", "system": "http://ncicb.nci.nih.gov/xml/owl/EVS/Thesaurus.owl", "display": "No"}]}]}], "classifier": [{"coding": [{"code": "Q000517", "system": "https://www.nlm.nih.gov/mesh", "display": "prevention & control"}]}]}], "classifier": [{"coding": [{"code": "D002318", "system": "https://www.nlm.nih.gov/mesh", "display": "Cardiovascular Diseases", "userSelected": false}]}], "freeToShare": true}, {"type": {"text": "components (if present) include qualifier codings", "coding": [{"code": "mesh-heading", "system": "http://terminology.hl7.org/CodeSystem/cited-artifact-classification-type", "display": "MeSH heading"}]}, "component": [{"type": {"text": "qualifier"}, "classifier": [{"text": "is not a major topic"}]}], "classifier": [{"coding": [{"code": "D032921", "system": "https://www.nlm.nih.gov/mesh", "display": "Consensus", "userSelected": false}]}], "freeToShare": true}, {"type": {"text": "components (if present) include qualifier codings", "coding": [{"code": "mesh-heading", "system": "http://terminology.hl7.org/CodeSystem/cited-artifact-classification-type", "display": "MeSH heading"}]}, "component": [{"type": {"text": "qualifier"}, "classifier": [{"text": "is not a major topic"}]}], "classifier": [{"coding": [{"code": "D003299", "system": "https://www.nlm.nih.gov/mesh", "display": "Cooperative Behavior", "userSelected": false}]}], "freeToShare": true}, {"type": {"text": "components (if present) include qualifier codings", "coding": [{"code": "mesh-heading", "system": "http://terminology.hl7.org/CodeSystem/cited-artifact-classification-type", "display": "MeSH heading"}]}, "component": [{"type": {"text": "qualifier"}, "classifier": [{"text": "is not a major topic"}]}, {"type": {"text": "qualifier"}, "component": [{"type": {"text": "is Major topic"}, "classifier": [{"coding": [{"code": "C49488", "system": "http://ncicb.nci.nih.gov/xml/owl/EVS/Thesaurus.owl", "display": "Yes"}]}]}], "classifier": [{"coding": [{"code": "Q000601", "system": "https://www.nlm.nih.gov/mesh", "display": "surgery"}]}]}], "classifier": [{"coding": [{"code": "D003924", "system": "https://www.nlm.nih.gov/mesh", "display": "Diabetes Mellitus, Type 2", "userSelected": false}]}], "freeToShare": true}, {"type": {"text": "components (if present) include qualifier codings", "coding": [{"code": "mesh-heading", "system": "http://terminology.hl7.org/CodeSystem/cited-artifact-classification-type", "display": "MeSH heading"}]}, "component": [{"type": {"text": "qualifier"}, "classifier": [{"text": "is not a major topic"}]}, {"type": {"text": "qualifier"}, "component": [{"type": {"text": "is Major topic"}, "classifier": [{"coding": [{"code": "C49487", "system": "http://ncicb.nci.nih.gov/xml/owl/EVS/Thesaurus.owl", "display": "No"}]}]}], "classifier": [{"coding": [{"code": "Q000458", "system": "https://www.nlm.nih.gov/mesh", "display": "organization & administration"}]}]}, {"type": {"text": "qualifier"}, "component": [{"type": {"text": "is Major topic"}, "classifier": [{"coding": [{"code": "C49488", "system": "http://ncicb.nci.nih.gov/xml/owl/EVS/Thesaurus.owl", "display": "Yes"}]}]}], "classifier": [{"coding": [{"code": "Q000592", "system": "https://www.nlm.nih.gov/mesh", "display": "standards"}]}]}], "classifier": [{"coding": [{"code": "D004704", "system": "https://www.nlm.nih.gov/mesh", "display": "Endocrinology", "userSelected": false}]}], "freeToShare": true}, {"type": {"text": "components (if present) include qualifier codings", "coding": [{"code": "mesh-heading", "system": "http://terminology.hl7.org/CodeSystem/cited-artifact-classification-type", "display": "MeSH heading"}]}, "component": [{"type": {"text": "qualifier"}, "classifier": [{"text": "is not a major topic"}]}], "classifier": [{"coding": [{"code": "D006801", "system": "https://www.nlm.nih.gov/mesh", "display": "Humans", "userSelected": false}]}], "freeToShare": true}, {"type": {"text": "components (if present) include qualifier codings", "coding": [{"code": "mesh-heading", "system": "http://terminology.hl7.org/CodeSystem/cited-artifact-classification-type", "display": "MeSH heading"}]}, "component": [{"type": {"text": "qualifier"}, "classifier": [{"text": "is not a major topic"}]}], "classifier": [{"coding": [{"code": "D038622", "system": "https://www.nlm.nih.gov/mesh", "display": "Internationality", "userSelected": false}]}], "freeToShare": true}, {"type": {"text": "components (if present) include qualifier codings", "coding": [{"code": "mesh-heading", "system": "http://terminology.hl7.org/CodeSystem/cited-artifact-classification-type", "display": "MeSH heading"}]}, "component": [{"type": {"text": "qualifier"}, "classifier": [{"text": "is not a major topic"}]}, {"type": {"text": "qualifier"}, "component": [{"type": {"text": "is Major topic"}, "classifier": [{"coding": [{"code": "C49487", "system": "http://ncicb.nci.nih.gov/xml/owl/EVS/Thesaurus.owl", "display": "No"}]}]}], "classifier": [{"coding": [{"code": "Q000601", "system": "https://www.nlm.nih.gov/mesh", "display": "surgery"}]}]}], "classifier": [{"coding": [{"code": "D009765", "system": "https://www.nlm.nih.gov/mesh", "display": "Obesity", "userSelected": false}]}], "freeToShare": true}, {"type": {"text": "components (if present) include qualifier codings", "coding": [{"code": "mesh-heading", "system": "http://terminology.hl7.org/CodeSystem/cited-artifact-classification-type", "display": "MeSH heading"}]}, "component": [{"type": {"text": "qualifier"}, "classifier": [{"text": "is Major topic"}]}], "classifier": [{"coding": [{"code": "D017410", "system": "https://www.nlm.nih.gov/mesh", "display": "Practice Guidelines as Topic", "userSelected": false}]}], "freeToShare": true}, {"type": {"text": "components (if present) include qualifier codings", "coding": [{"code": "mesh-heading", "system": "http://terminology.hl7.org/CodeSystem/cited-artifact-classification-type", "display": "MeSH heading"}]}, "component": [{"type": {"text": "qualifier"}, "classifier": [{"text": "is not a major topic"}]}], "classifier": [{"coding": [{"code": "D012307", "system": "https://www.nlm.nih.gov/mesh", "display": "Risk Factors", "userSelected": false}]}], "freeToShare": true}, {"type": {"text": "components (if present) include qualifier codings", "coding": [{"code": "mesh-heading", "system": "http://terminology.hl7.org/CodeSystem/cited-artifact-classification-type", "display": "MeSH heading"}]}, "component": [{"type": {"text": "qualifier"}, "classifier": [{"text": "is not a major topic"}]}, {"type": {"text": "qualifier"}, "component": [{"type": {"text": "is Major topic"}, "classifier": [{"coding": [{"code": "C49487", "system": "http://ncicb.nci.nih.gov/xml/owl/EVS/Thesaurus.owl", "display": "No"}]}]}], "classifier": [{"coding": [{"code": "Q000458", "system": "https://www.nlm.nih.gov/mesh", "display": "organization & administration"}]}]}, {"type": {"text": "qualifier"}, "component": [{"type": {"text": "is Major topic"}, "classifier": [{"coding": [{"code": "C49487", "system": "http://ncicb.nci.nih.gov/xml/owl/EVS/Thesaurus.owl", "display": "No"}]}]}], "classifier": [{"coding": [{"code": "Q000592", "system": "https://www.nlm.nih.gov/mesh", "display": "standards"}]}]}], "classifier": [{"coding": [{"code": "D012955", "system": "https://www.nlm.nih.gov/mesh", "display": "Societies, Medical", "userSelected": false}]}], "freeToShare": true}], "resourceType": "ArtifactAssessment", "artifactReference": {"type": "Citation", "reference": "#"}}], "copyright": "https://creativecommons.org/licenses/by-nc-sa/4.0/", "extension": [{"url": "http://hl7.org/fhir/uv/ebm/StructureDefinition/artifact-publication-status", "valueCodeableConcept": {"coding": [{"code": "active", "system": "http://terminology.hl7.org/CodeSystem/cited-artifact-status-type", "display": "Active"}]}}], "publisher": "Computable Publishing LLC", "identifier": [{"type": {"text": "FEvIR Object Identifier", "coding": [{"system": "http://terminology.hl7.org/CodeSystem/v2-0203", "code": "ACSN", "display": "Accession ID"}]}, "value": "33089", "system": "https://fevir.net/FOI", "assigner": {"display": "Computable Publishing LLC"}}, {"value": "27222544", "system": "https://pubmed.ncbi.nlm.nih.gov"}], "statusDate": [{"period": {"end": "2016-05-26T06:00:00.000Z"}, "activity": {"coding": [{"code": "pubmed-pubstatus-entrez", "system": "http://hl7.org/fhir/citation-status-type", "display": "PubMed Pubstatus of Entrez"}]}}, {"period": {"end": "2016-05-26T06:00:00.000Z"}, "activity": {"coding": [{"code": "pubmed-pubstatus-pubmed", "system": "http://hl7.org/fhir/citation-status-type", "display": "PubMed Pubstatus of Pubmed"}]}}, {"period": {"end": "2017-09-29T06:00:00.000Z"}, "activity": {"coding": [{"code": "pubmed-pubstatus-medline", "system": "http://hl7.org/fhir/citation-status-type", "display": "PubMed Pubstatus of Medline"}]}}], "useContext": [{"code": {"code": "fevir-platform-use", "system": "http://terminology.hl7.org/CodeSystem/citation-classification-type", "display": "FEvIR Platform Use"}, "valueCodeableConcept": {"coding": [{"code": "medline-base", "system": "http://terminology.hl7.org/CodeSystem/citation-artifact-classifier", "display": "Medline Base", "userSelected": false}]}}], "approvalDate": "2017-09-28", "currentState": [{"coding": [{"code": "medline-medline", "system": "http://hl7.org/fhir/citation-status-type", "display": "Medline Citation Status of Medline"}]}, {"coding": [{"code": "pubmed-publication-status-ppublish", "system": "http://hl7.org/fhir/citation-status-type", "display": "PubMed PublicationStatus of ppublish"}]}], "resourceType": "Citation", "citedArtifact": {"title": [{"text": "Metabolic Surgery in the Treatment Algorithm for Type 2 Diabetes: A Joint Statement by International Diabetes Organizations.", "type": [{"coding": [{"code": "primary", "system": "http://terminology.hl7.org/CodeSystem/title-type", "display": "Primary title"}]}], "language": {"coding": [{"system": "urn:ietf:bcp:47", "code": "en", "display": "English"}]}}], "abstract": [{"text": "**BACKGROUND:** Despite growing evidence that bariatric/metabolic surgery powerfully improves type 2 diabetes (T2D), existing diabetes treatment algorithms do not include surgical options.\n**AIM:** The 2nd Diabetes Surgery Summit (DSS-II), an international consensus conference, was convened in collaboration with leading diabetes organizations to develop global guidelines to inform clinicians and policymakers about benefits and limitations of metabolic surgery for T2D.\n**METHODS:** A multidisciplinary group of 48 international clinicians/scholars (75% nonsurgeons), including representatives of leading diabetes organizations, participated in DSS-II. After evidence appraisal (MEDLINE [1 January 2005-30 September 2015]), three rounds of Delphi-like questionnaires were used to measure consensus for 32 data-based conclusions. These drafts were presented at the combined DSS-II and 3rd World Congress on Interventional Therapies for Type 2 Diabetes (London, U.K., 28-30 September 2015), where they were open to public comment by other professionals and amended face-to-face by the Expert Committee.\n**RESULTS:** Given its role in metabolic regulation, the gastrointestinal tract constitutes a meaningful target to manage T2D. Numerous randomized clinical trials, albeit mostly short/midterm, demonstrate that metabolic surgery achieves excellent glycemic control and reduces cardiovascular risk factors. On the basis of such evidence, metabolic surgery should be recommended to treat T2D in patients with class III obesity (BMI \u226540 kg/m(2)) and in those with class II obesity (BMI 35.0-39.9 kg/m(2)) when hyperglycemia is inadequately controlled by lifestyle and optimal medical therapy. Surgery should also be considered for patients with T2D and BMI 30.0-34.9 kg/m(2) if hyperglycemia is inadequately controlled despite optimal treatment with either oral or injectable medications. These BMI thresholds should be reduced by 2.5 kg/m(2) for Asian patients.\n**CONCLUSIONS:** Although additional studies are needed to further demonstrate long-term benefits, there is sufficient clinical and mechanistic evidence to support inclusion of metabolic surgery among antidiabetes interventions for people with T2D and obesity. To date, the DSS-II guidelines have been formally endorsed by 45 worldwide medical and scientific societies. Health care regulators should introduce appropriate reimbursement policies.", "type": {"coding": [{"code": "primary-human-use", "system": "http://terminology.hl7.org/CodeSystem/cited-artifact-abstract-type", "display": "Primary human use"}]}, "copyright": "\u00a9 2016 by the American Diabetes Association. Readers may use this article as long as the work is properly cited, the use is educational and not for profit, and the work is not altered."}], "relatesTo": [{"type": "comment-in", "citation": "Nat Rev Endocrinol. 2016 Sep;12(9):500-2. doi: 10.1038/nrendo.2016.111.", "classifier": [{"coding": [{"code": "D016420", "system": "https://www.nlm.nih.gov/mesh", "display": "Comment", "userSelected": false}]}], "targetReference": {"reference": "https://pubmed.ncbi.nlm.nih.gov/27388983/", "identifier": {"value": "27388983", "system": "https://pubmed.ncbi.nlm.nih.gov", "assigner": {"display": "NLM"}}}}, {"type": "comment-in", "citation": "Diabetes Care. 2016 Nov;39(11):e201. doi: 10.2337/dc16-1416.", "classifier": [{"coding": [{"code": "D016420", "system": "https://www.nlm.nih.gov/mesh", "display": "Comment", "userSelected": false}]}], "targetReference": {"reference": "https://pubmed.ncbi.nlm.nih.gov/27926899/", "identifier": {"value": "27926899", "system": "https://pubmed.ncbi.nlm.nih.gov", "assigner": {"display": "NLM"}}}}, {"type": "comment-in", "citation": "Diabetes Care. 2016 Nov;39(11):e202-e203. doi: 10.2337/dci16-0031.", "classifier": [{"coding": [{"code": "D016420", "system": "https://www.nlm.nih.gov/mesh", "display": "Comment", "userSelected": false}]}], "targetReference": {"reference": "https://pubmed.ncbi.nlm.nih.gov/27926900/", "identifier": {"value": "27926900", "system": "https://pubmed.ncbi.nlm.nih.gov", "assigner": {"display": "NLM"}}}}, {"type": "comment-in", "citation": "Diabetes Care. 2017 Jul;40(7):e90-e91. doi: 10.2337/dc16-2403.", "classifier": [{"coding": [{"code": "D016420", "system": "https://www.nlm.nih.gov/mesh", "display": "Comment", "userSelected": false}]}], "targetReference": {"reference": "https://pubmed.ncbi.nlm.nih.gov/28637891/", "identifier": {"value": "28637891", "system": "https://pubmed.ncbi.nlm.nih.gov", "assigner": {"display": "NLM"}}}}], "identifier": [{"value": "27222544", "system": "https://pubmed.ncbi.nlm.nih.gov"}, {"value": "10.2337/dc16-0236", "system": "https://doi.org"}, {"type": {"text": "pii", "coding": [{"system": "http://terminology.hl7.org/CodeSystem/v2-0203", "code": "ACSN", "display": "Accession ID"}]}, "value": "39/6/861"}], "webLocation": [{"url": "https://pubmed.ncbi.nlm.nih.gov/27222544/", "classifier": [{"coding": [{"code": "abstract", "system": "http://terminology.hl7.org/CodeSystem/artifact-url-classifier", "display": "Abstract"}]}]}, {"url": "https://doi.org/10.2337/dc16-0236", "classifier": [{"coding": [{"code": "doi-based", "system": "http://terminology.hl7.org/CodeSystem/artifact-url-classifier", "display": "DOI Based"}]}]}], "classification": [{"type": {"coding": [{"code": "publishing-model", "system": "http://terminology.hl7.org/CodeSystem/cited-artifact-classification-type", "display": "Publishing Model", "userSelected": false}]}, "classifier": [{"coding": [{"code": "Print", "system": "http://terminology.hl7.org/CodeSystem/citation-artifact-classifier", "display": "Print", "userSelected": false}]}]}, {"type": {"coding": [{"code": "mesh-heading", "system": "http://terminology.hl7.org/CodeSystem/cited-artifact-classification-type", "display": "MeSH heading"}]}, "artifactAssessment": [{"type": "ArtifactAssessment", "reference": "#meshHeading0"}]}, {"type": {"coding": [{"code": "publication-type", "system": "http://terminology.hl7.org/CodeSystem/cited-artifact-classification-type", "display": "Publication type"}]}, "classifier": [{"coding": [{"code": "D016446", "system": "https://www.nlm.nih.gov/mesh", "display": "Consensus Development Conference", "userSelected": false}]}, {"coding": [{"code": "D016428", "system": "https://www.nlm.nih.gov/mesh", "display": "Journal Article", "userSelected": false}]}]}, {"type": {"coding": [{"code": "knowledge-artifact-type", "system": "http://terminology.hl7.org/CodeSystem/cited-artifact-classification-type", "display": "Knowledge Artifact Type", "userSelected": false}]}, "classifier": [{"coding": [{"code": "D016428", "system": "http://terminology.hl7.org/CodeSystem/citation-artifact-classifier", "display": "Journal Article", "userSelected": false}]}], "artifactAssessment": [{"display": "Classifier added by Computable Publishing LLC"}]}, {"type": {"coding": [{"code": "citation-subset", "system": "http://terminology.hl7.org/CodeSystem/cited-artifact-classification-type", "display": "Citation subset", "userSelected": false}]}, "classifier": [{"coding": [{"code": "IM", "system": "https://www.nlm.nih.gov/bsd/licensee/elements_descriptions.html#citationsubset", "display": "IM", "userSelected": false}]}]}], "contributorship": {"entry": [{"affiliation": [{"display": "King's College London, London, U.K. francesco.rubino@kcl.ac.uk davidec@u.washington.edu."}], "contributor": {"type": "Practitioner", "display": "Rubino F", "reference": "#contributor0"}, "forenameInitials": "F"}, {"affiliation": [{"display": "Harvard Medical School, Boston, MA."}], "contributor": {"type": "Practitioner", "display": "Nathan DM", "reference": "#contributor1"}, "forenameInitials": "DM"}, {"affiliation": [{"display": "University of Colorado Anschutz Medical Campus, Aurora, CO."}], "contributor": {"type": "Practitioner", "display": "Eckel RH", "reference": "#contributor2"}, "forenameInitials": "RH"}, {"affiliation": [{"display": "Cleveland Clinic, Cleveland, OH."}], "contributor": {"type": "Practitioner", "display": "Schauer PR", "reference": "#contributor3"}, "forenameInitials": "PR"}, {"affiliation": [{"display": "Imperial College London, London, U.K."}], "contributor": {"type": "Practitioner", "display": "Alberti KG", "reference": "#contributor4"}, "forenameInitials": "KG"}, {"affiliation": [{"display": "Monash University, Melbourne, Victoria, Australia."}], "contributor": {"type": "Practitioner", "display": "Zimmet PZ", "reference": "#contributor5"}, "forenameInitials": "PZ"}, {"affiliation": [{"display": "University of Pisa, Pisa, Italy."}], "contributor": {"type": "Practitioner", "display": "Del Prato S", "reference": "#contributor6"}, "forenameInitials": "S"}, {"affiliation": [{"display": "Peking University, Beijing, China."}], "contributor": {"type": "Practitioner", "display": "Ji L", "reference": "#contributor7"}, "forenameInitials": "L"}, {"affiliation": [{"display": "Diabetes India, Mumbai, India."}], "contributor": {"type": "Practitioner", "display": "Sadikot SM", "reference": "#contributor8"}, "forenameInitials": "SM"}, {"affiliation": [{"display": "University of Michigan, Ann Arbor, MI."}], "contributor": {"type": "Practitioner", "display": "Herman WH", "reference": "#contributor9"}, "forenameInitials": "WH"}, {"affiliation": [{"display": "King's College London, London, U.K."}], "contributor": {"type": "Practitioner", "display": "Amiel SA", "reference": "#contributor10"}, "forenameInitials": "SA"}, {"affiliation": [{"display": "Harvard Medical School, Boston, MA."}], "contributor": {"type": "Practitioner", "display": "Kaplan LM", "reference": "#contributor11"}, "forenameInitials": "LM"}, {"affiliation": [{"display": "Philadelphia, PA."}], "contributor": {"type": "Practitioner", "display": "Taroncher-Oldenburg G", "reference": "#contributor12"}, "forenameInitials": "G"}, {"affiliation": [{"display": "University of Washington, Seattle, WA francesco.rubino@kcl.ac.uk davidec@u.washington.edu."}], "contributor": {"type": "Practitioner", "display": "Cummings DE", "reference": "#contributor13"}, "forenameInitials": "DE"}, {"contributor": {"type": "Organization", "display": "Delegates of the 2nd Diabetes Surgery Summit", "reference": "#contributor14"}}], "complete": true}, "publicationForm": [{"issue": "6", "volume": "39", "pageString": "861-77", "articleDate": "2016-06", "citedMedium": {"coding": [{"code": "internet", "system": "http://terminology.hl7.org/CodeSystem/cited-medium", "display": "Internet"}]}, "publishedIn": {"type": {"coding": [{"code": "D020492", "system": "http://terminology.hl7.org/CodeSystem/published-in-type", "display": "Periodical"}]}, "title": "Diabetes care", "identifier": [{"type": {"text": "Electronic ISSN Type", "coding": [{"code": "Electronic", "system": "https://www.nlm.nih.gov/bsd/licensee/elements_descriptions.html#issn", "display": "Electronic"}]}, "value": "1935-5548", "system": "https://portal.issn.org"}, {"type": {"text": "ISOAbbreviation", "coding": [{"system": "http://terminology.hl7.org/CodeSystem/v2-0203", "code": "XX", "display": "Organization identifier"}]}, "value": "Diabetes Care", "system": "https://www.issn.org/services/online-services/access-to-the-ltwa/"}, {"type": {"text": "ISSN Linking", "coding": [{"system": "http://terminology.hl7.org/CodeSystem/v2-0203", "code": "XX", "display": "Organization identifier"}]}, "value": "0149-5992", "system": "https://www.issn.org/understanding-the-issn/assignment-rules/the-issn-l-for-publications-on-multiple-media/"}, {"type": {"text": "Medline Title Abbreviation", "coding": [{"system": "http://terminology.hl7.org/CodeSystem/v2-0203", "code": "XX", "display": "Organization identifier"}]}, "value": "Diabetes Care", "system": "https://www.nlm.nih.gov/tsd/cataloging/contructitleabbre.html"}, {"type": {"text": "NLM Unique ID", "coding": [{"system": "http://terminology.hl7.org/CodeSystem/v2-0203", "code": "XX", "display": "Organization identifier"}]}, "value": "7805975", "system": "https://locatorplus.gov/cgi-bin/Pwebrecon.cgi?DB=local"}], "publisherLocation": "United States"}}]}, "classification": [{"type": {"coding": [{"code": "citation-source", "system": "http://terminology.hl7.org/CodeSystem/citation-classification-type", "display": "Citation Source"}]}, "classifier": [{"text": "MEDLINE"}]}, {"type": {"coding": [{"code": "medline-owner", "system": "http://terminology.hl7.org/CodeSystem/citation-classification-type", "display": "MEDLINE Citation Owner"}]}, "classifier": [{"coding": [{"code": "NLM", "system": "https://www.nlm.nih.gov/bsd/licensee/elements_descriptions.html#owner_value", "display": "National Library of Medicine, Index Section", "userSelected": false}]}]}], "lastReviewDate": "2022-04-08", "description": "This Citation Resource is referenced in an example for the EBMonFHIR Implementation Guide."}