{"resourceType": "Citation", "meta": {"profile": ["http://hl7.org/fhir/uv/ebm/StructureDefinition/journal-article-citation"], "versionId": "18", "lastUpdated": "2025-10-12T22:50:47.341Z"}, "contained": [{"resourceType": "ArtifactAssessment", "id": "keywords0", "artifactReference": {"reference": "#", "type": "Citation"}, "content": [{"classifier": [{"text": "Control arm cohort"}]}, {"classifier": [{"text": "Hormone-na\u00efve"}]}, {"classifier": [{"text": "Metastatic"}]}, {"classifier": [{"text": "Natural history"}]}, {"classifier": [{"text": "Prognostic factors"}]}, {"classifier": [{"text": "Prospective data"}]}, {"classifier": [{"text": "Prostate cancer"}]}, {"classifier": [{"text": "Survival"}]}, {"classifier": [{"text": "Time to progression"}]}]}, {"resourceType": "Practitioner", "id": "contributor0", "name": [{"family": "James", "given": ["Nicholas David"]}]}, {"resourceType": "Practitioner", "id": "contributor1", "name": [{"family": "Spears", "given": ["Melissa R"]}]}, {"resourceType": "Practitioner", "id": "contributor2", "name": [{"family": "Clarke", "given": ["Noel W"]}]}, {"resourceType": "Practitioner", "id": "contributor3", "name": [{"family": "Dearnaley", "given": ["David P"]}]}, {"resourceType": "Practitioner", "id": "contributor4", "name": [{"family": "De Bono", "given": ["Johann S"]}]}, {"resourceType": "Practitioner", "id": "contributor5", "name": [{"family": "Gale", "given": ["Joanna"]}]}, {"resourceType": "Practitioner", "id": "contributor6", "name": [{"family": "Hetherington", "given": ["John"]}]}, {"resourceType": "Practitioner", "id": "contributor7", "name": [{"family": "Hoskin", "given": ["Peter J"]}]}, {"resourceType": "Practitioner", "id": "contributor8", "name": [{"family": "Jones", "given": ["Robert J"]}]}, {"resourceType": "Practitioner", "id": "contributor9", "name": [{"family": "Laing", "given": ["Robert"]}]}, {"resourceType": "Practitioner", "id": "contributor10", "name": [{"family": "Lester", "given": ["Jason F"]}]}, {"resourceType": "Practitioner", "id": "contributor11", "name": [{"family": "McLaren", "given": ["Duncan"]}]}, {"resourceType": "Practitioner", "id": "contributor12", "name": [{"family": "Parker", "given": ["Christopher C"]}]}, {"resourceType": "Practitioner", "id": "contributor13", "name": [{"family": "Parmar", "given": ["Mahesh K B"]}]}, {"resourceType": "Practitioner", "id": "contributor14", "name": [{"family": "Ritchie", "given": ["Alastair W S"]}]}, {"resourceType": "Practitioner", "id": "contributor15", "name": [{"family": "Russell", "given": ["J Martin"]}]}, {"resourceType": "Practitioner", "id": "contributor16", "name": [{"family": "Strebel", "given": ["R\u00e4to T"]}]}, {"resourceType": "Practitioner", "id": "contributor17", "name": [{"family": "Thalmann", "given": ["George N"]}]}, {"resourceType": "Practitioner", "id": "contributor18", "name": [{"family": "Mason", "given": ["Malcolm D"]}]}, {"resourceType": "Practitioner", "id": "contributor19", "name": [{"family": "Sydes", "given": ["Matthew R"]}]}, {"resourceType": "ArtifactAssessment", "id": "meshHeading0", "artifactReference": {"reference": "#", "type": "Citation"}, "content": [{"type": {"coding": [{"system": "http://terminology.hl7.org/CodeSystem/cited-artifact-classification-type", "code": "mesh-heading", "display": "MeSH heading"}], "text": "components (if present) include qualifier codings"}, "classifier": [{"coding": [{"system": "https://www.nlm.nih.gov/mesh", "code": "D000328", "display": "Adult", "userSelected": false}]}], "freeToShare": true, "component": [{"type": {"text": "qualifier"}, "classifier": [{"text": "is not a major topic"}]}]}, {"type": {"coding": [{"system": "http://terminology.hl7.org/CodeSystem/cited-artifact-classification-type", "code": "mesh-heading", "display": "MeSH heading"}], "text": "components (if present) include qualifier codings"}, "classifier": [{"coding": [{"system": "https://www.nlm.nih.gov/mesh", "code": "D000367", "display": "Age Factors", "userSelected": false}]}], "freeToShare": true, "component": [{"type": {"text": "qualifier"}, "classifier": [{"text": "is not a major topic"}]}]}, {"type": {"coding": [{"system": "http://terminology.hl7.org/CodeSystem/cited-artifact-classification-type", "code": "mesh-heading", "display": "MeSH heading"}], "text": "components (if present) include qualifier codings"}, "classifier": [{"coding": [{"system": "https://www.nlm.nih.gov/mesh", "code": "D000368", "display": "Aged", "userSelected": false}]}], "freeToShare": true, "component": [{"type": {"text": "qualifier"}, "classifier": [{"text": "is not a major topic"}]}]}, {"type": {"coding": [{"system": "http://terminology.hl7.org/CodeSystem/cited-artifact-classification-type", "code": "mesh-heading", "display": "MeSH heading"}], "text": "components (if present) include qualifier codings"}, "classifier": [{"coding": [{"system": "https://www.nlm.nih.gov/mesh", "code": "D000369", "display": "Aged, 80 and over", "userSelected": false}]}], "freeToShare": true, "component": [{"type": {"text": "qualifier"}, "classifier": [{"text": "is not a major topic"}]}]}, {"type": {"coding": [{"system": "http://terminology.hl7.org/CodeSystem/cited-artifact-classification-type", "code": "mesh-heading", "display": "MeSH heading"}], "text": "components (if present) include qualifier codings"}, "classifier": [{"coding": [{"system": "https://www.nlm.nih.gov/mesh", "code": "D000726", "display": "Androgen Antagonists", "userSelected": false}]}], "freeToShare": true, "component": [{"type": {"text": "qualifier"}, "classifier": [{"text": "is not a major topic"}]}, {"type": {"text": "qualifier"}, "classifier": [{"coding": [{"system": "https://www.nlm.nih.gov/mesh", "code": "Q000627", "display": "therapeutic use"}]}], "component": [{"type": {"text": "is Major topic"}, "classifier": [{"coding": [{"system": "http://ncicb.nci.nih.gov/xml/owl/EVS/Thesaurus.owl", "code": "C49488", "display": "Yes"}]}]}]}]}, {"type": {"coding": [{"system": "http://terminology.hl7.org/CodeSystem/cited-artifact-classification-type", "code": "mesh-heading", "display": "MeSH heading"}], "text": "components (if present) include qualifier codings"}, "classifier": [{"coding": [{"system": "https://www.nlm.nih.gov/mesh", "code": "D015331", "display": "Cohort Studies", "userSelected": false}]}], "freeToShare": true, "component": [{"type": {"text": "qualifier"}, "classifier": [{"text": "is not a major topic"}]}]}, {"type": {"coding": [{"system": "http://terminology.hl7.org/CodeSystem/cited-artifact-classification-type", "code": "mesh-heading", "display": "MeSH heading"}], "text": "components (if present) include qualifier codings"}, "classifier": [{"coding": [{"system": "https://www.nlm.nih.gov/mesh", "code": "D018572", "display": "Disease-Free Survival", "userSelected": false}]}], "freeToShare": true, "component": [{"type": {"text": "qualifier"}, "classifier": [{"text": "is not a major topic"}]}]}, {"type": {"coding": [{"system": "http://terminology.hl7.org/CodeSystem/cited-artifact-classification-type", "code": "mesh-heading", "display": "MeSH heading"}], "text": "components (if present) include qualifier codings"}, "classifier": [{"coding": [{"system": "https://www.nlm.nih.gov/mesh", "code": "D000077143", "display": "Docetaxel", "userSelected": false}]}], "freeToShare": true, "component": [{"type": {"text": "qualifier"}, "classifier": [{"text": "is not a major topic"}]}]}, {"type": {"coding": [{"system": "http://terminology.hl7.org/CodeSystem/cited-artifact-classification-type", "code": "mesh-heading", "display": "MeSH heading"}], "text": "components (if present) include qualifier codings"}, "classifier": [{"coding": [{"system": "https://www.nlm.nih.gov/mesh", "code": "D055088", "display": "Early Detection of Cancer", "userSelected": false}]}], "freeToShare": true, "component": [{"type": {"text": "qualifier"}, "classifier": [{"text": "is not a major topic"}]}, {"type": {"text": "qualifier"}, "classifier": [{"coding": [{"system": "https://www.nlm.nih.gov/mesh", "code": "Q000401", "display": "mortality"}]}], "component": [{"type": {"text": "is Major topic"}, "classifier": [{"coding": [{"system": "http://ncicb.nci.nih.gov/xml/owl/EVS/Thesaurus.owl", "code": "C49487", "display": "No"}]}]}]}]}, {"type": {"coding": [{"system": "http://terminology.hl7.org/CodeSystem/cited-artifact-classification-type", "code": "mesh-heading", "display": "MeSH heading"}], "text": "components (if present) include qualifier codings"}, "classifier": [{"coding": [{"system": "https://www.nlm.nih.gov/mesh", "code": "D005500", "display": "Follow-Up Studies", "userSelected": false}]}], "freeToShare": true, "component": [{"type": {"text": "qualifier"}, "classifier": [{"text": "is not a major topic"}]}]}, {"type": {"coding": [{"system": "http://terminology.hl7.org/CodeSystem/cited-artifact-classification-type", "code": "mesh-heading", "display": "MeSH heading"}], "text": "components (if present) include qualifier codings"}, "classifier": [{"coding": [{"system": "https://www.nlm.nih.gov/mesh", "code": "D006801", "display": "Humans", "userSelected": false}]}], "freeToShare": true, "component": [{"type": {"text": "qualifier"}, "classifier": [{"text": "is not a major topic"}]}]}, {"type": {"coding": [{"system": "http://terminology.hl7.org/CodeSystem/cited-artifact-classification-type", "code": "mesh-heading", "display": "MeSH heading"}], "text": "components (if present) include qualifier codings"}, "classifier": [{"coding": [{"system": "https://www.nlm.nih.gov/mesh", "code": "D053208", "display": "Kaplan-Meier Estimate", "userSelected": false}]}], "freeToShare": true, "component": [{"type": {"text": "qualifier"}, "classifier": [{"text": "is not a major topic"}]}]}, {"type": {"coding": [{"system": "http://terminology.hl7.org/CodeSystem/cited-artifact-classification-type", "code": "mesh-heading", "display": "MeSH heading"}], "text": "components (if present) include qualifier codings"}, "classifier": [{"coding": [{"system": "https://www.nlm.nih.gov/mesh", "code": "D008297", "display": "Male", "userSelected": false}]}], "freeToShare": true, "component": [{"type": {"text": "qualifier"}, "classifier": [{"text": "is not a major topic"}]}]}, {"type": {"coding": [{"system": "http://terminology.hl7.org/CodeSystem/cited-artifact-classification-type", "code": "mesh-heading", "display": "MeSH heading"}], "text": "components (if present) include qualifier codings"}, "classifier": [{"coding": [{"system": "https://www.nlm.nih.gov/mesh", "code": "D008875", "display": "Middle Aged", "userSelected": false}]}], "freeToShare": true, "component": [{"type": {"text": "qualifier"}, "classifier": [{"text": "is not a major topic"}]}]}, {"type": {"coding": [{"system": "http://terminology.hl7.org/CodeSystem/cited-artifact-classification-type", "code": "mesh-heading", "display": "MeSH heading"}], "text": "components (if present) include qualifier codings"}, "classifier": [{"coding": [{"system": "https://www.nlm.nih.gov/mesh", "code": "D060787", "display": "Neoplasm Grading", "userSelected": false}]}], "freeToShare": true, "component": [{"type": {"text": "qualifier"}, "classifier": [{"text": "is not a major topic"}]}]}, {"type": {"coding": [{"system": "http://terminology.hl7.org/CodeSystem/cited-artifact-classification-type", "code": "mesh-heading", "display": "MeSH heading"}], "text": "components (if present) include qualifier codings"}, "classifier": [{"coding": [{"system": "https://www.nlm.nih.gov/mesh", "code": "D009362", "display": "Neoplasm Metastasis", "userSelected": false}]}], "freeToShare": true, "component": [{"type": {"text": "qualifier"}, "classifier": [{"text": "is not a major topic"}]}, {"type": {"text": "qualifier"}, "classifier": [{"coding": [{"system": "https://www.nlm.nih.gov/mesh", "code": "Q000175", "display": "diagnosis"}]}], "component": [{"type": {"text": "is Major topic"}, "classifier": [{"coding": [{"system": "http://ncicb.nci.nih.gov/xml/owl/EVS/Thesaurus.owl", "code": "C49487", "display": "No"}]}]}]}, {"type": {"text": "qualifier"}, "classifier": [{"coding": [{"system": "https://www.nlm.nih.gov/mesh", "code": "Q000473", "display": "pathology"}]}], "component": [{"type": {"text": "is Major topic"}, "classifier": [{"coding": [{"system": "http://ncicb.nci.nih.gov/xml/owl/EVS/Thesaurus.owl", "code": "C49487", "display": "No"}]}]}]}, {"type": {"text": "qualifier"}, "classifier": [{"coding": [{"system": "https://www.nlm.nih.gov/mesh", "code": "Q000628", "display": "therapy"}]}], "component": [{"type": {"text": "is Major topic"}, "classifier": [{"coding": [{"system": "http://ncicb.nci.nih.gov/xml/owl/EVS/Thesaurus.owl", "code": "C49488", "display": "Yes"}]}]}]}]}, {"type": {"coding": [{"system": "http://terminology.hl7.org/CodeSystem/cited-artifact-classification-type", "code": "mesh-heading", "display": "MeSH heading"}], "text": "components (if present) include qualifier codings"}, "classifier": [{"coding": [{"system": "https://www.nlm.nih.gov/mesh", "code": "D010809", "display": "Physical Fitness", "userSelected": false}]}], "freeToShare": true, "component": [{"type": {"text": "qualifier"}, "classifier": [{"text": "is not a major topic"}]}]}, {"type": {"coding": [{"system": "http://terminology.hl7.org/CodeSystem/cited-artifact-classification-type", "code": "mesh-heading", "display": "MeSH heading"}], "text": "components (if present) include qualifier codings"}, "classifier": [{"coding": [{"system": "https://www.nlm.nih.gov/mesh", "code": "D011379", "display": "Prognosis", "userSelected": false}]}], "freeToShare": true, "component": [{"type": {"text": "qualifier"}, "classifier": [{"text": "is not a major topic"}]}]}, {"type": {"coding": [{"system": "http://terminology.hl7.org/CodeSystem/cited-artifact-classification-type", "code": "mesh-heading", "display": "MeSH heading"}], "text": "components (if present) include qualifier codings"}, "classifier": [{"coding": [{"system": "https://www.nlm.nih.gov/mesh", "code": "D016016", "display": "Proportional Hazards Models", "userSelected": false}]}], "freeToShare": true, "component": [{"type": {"text": "qualifier"}, "classifier": [{"text": "is not a major topic"}]}]}, {"type": {"coding": [{"system": "http://terminology.hl7.org/CodeSystem/cited-artifact-classification-type", "code": "mesh-heading", "display": "MeSH heading"}], "text": "components (if present) include qualifier codings"}, "classifier": [{"coding": [{"system": "https://www.nlm.nih.gov/mesh", "code": "D017430", "display": "Prostate-Specific Antigen", "userSelected": false}]}], "freeToShare": true, "component": [{"type": {"text": "qualifier"}, "classifier": [{"text": "is not a major topic"}]}, {"type": {"text": "qualifier"}, "classifier": [{"coding": [{"system": "https://www.nlm.nih.gov/mesh", "code": "Q000097", "display": "blood"}]}], "component": [{"type": {"text": "is Major topic"}, "classifier": [{"coding": [{"system": "http://ncicb.nci.nih.gov/xml/owl/EVS/Thesaurus.owl", "code": "C49487", "display": "No"}]}]}]}]}, {"type": {"coding": [{"system": "http://terminology.hl7.org/CodeSystem/cited-artifact-classification-type", "code": "mesh-heading", "display": "MeSH heading"}], "text": "components (if present) include qualifier codings"}, "classifier": [{"coding": [{"system": "https://www.nlm.nih.gov/mesh", "code": "D011471", "display": "Prostatic Neoplasms", "userSelected": false}]}], "freeToShare": true, "component": [{"type": {"text": "qualifier"}, "classifier": [{"text": "is not a major topic"}]}, {"type": {"text": "qualifier"}, "classifier": [{"coding": [{"system": "https://www.nlm.nih.gov/mesh", "code": "Q000175", "display": "diagnosis"}]}], "component": [{"type": {"text": "is Major topic"}, "classifier": [{"coding": [{"system": "http://ncicb.nci.nih.gov/xml/owl/EVS/Thesaurus.owl", "code": "C49487", "display": "No"}]}]}]}, {"type": {"text": "qualifier"}, "classifier": [{"coding": [{"system": "https://www.nlm.nih.gov/mesh", "code": "Q000188", "display": "drug therapy"}]}], "component": [{"type": {"text": "is Major topic"}, "classifier": [{"coding": [{"system": "http://ncicb.nci.nih.gov/xml/owl/EVS/Thesaurus.owl", "code": "C49488", "display": "Yes"}]}]}]}, {"type": {"text": "qualifier"}, "classifier": [{"coding": [{"system": "https://www.nlm.nih.gov/mesh", "code": "Q000401", "display": "mortality"}]}], "component": [{"type": {"text": "is Major topic"}, "classifier": [{"coding": [{"system": "http://ncicb.nci.nih.gov/xml/owl/EVS/Thesaurus.owl", "code": "C49487", "display": "No"}]}]}]}, {"type": {"text": "qualifier"}, "classifier": [{"coding": [{"system": "https://www.nlm.nih.gov/mesh", "code": "Q000473", "display": "pathology"}]}], "component": [{"type": {"text": "is Major topic"}, "classifier": [{"coding": [{"system": "http://ncicb.nci.nih.gov/xml/owl/EVS/Thesaurus.owl", "code": "C49487", "display": "No"}]}]}]}]}, {"type": {"coding": [{"system": "http://terminology.hl7.org/CodeSystem/cited-artifact-classification-type", "code": "mesh-heading", "display": "MeSH heading"}], "text": "components (if present) include qualifier codings"}, "classifier": [{"coding": [{"system": "https://www.nlm.nih.gov/mesh", "code": "D012307", "display": "Risk Factors", "userSelected": false}]}], "freeToShare": true, "component": [{"type": {"text": "qualifier"}, "classifier": [{"text": "is not a major topic"}]}]}, {"type": {"coding": [{"system": "http://terminology.hl7.org/CodeSystem/cited-artifact-classification-type", "code": "mesh-heading", "display": "MeSH heading"}], "text": "components (if present) include qualifier codings"}, "classifier": [{"coding": [{"system": "https://www.nlm.nih.gov/mesh", "code": "D043823", "display": "Taxoids", "userSelected": false}]}], "freeToShare": true, "component": [{"type": {"text": "qualifier"}, "classifier": [{"text": "is not a major topic"}]}, {"type": {"text": "qualifier"}, "classifier": [{"coding": [{"system": "https://www.nlm.nih.gov/mesh", "code": "Q000627", "display": "therapeutic use"}]}], "component": [{"type": {"text": "is Major topic"}, "classifier": [{"coding": [{"system": "http://ncicb.nci.nih.gov/xml/owl/EVS/Thesaurus.owl", "code": "C49488", "display": "Yes"}]}]}]}]}, {"type": {"coding": [{"system": "http://terminology.hl7.org/CodeSystem/cited-artifact-classification-type", "code": "mesh-heading", "display": "MeSH heading"}], "text": "components (if present) include qualifier codings"}, "classifier": [{"coding": [{"system": "https://www.nlm.nih.gov/mesh", "code": "D016896", "display": "Treatment Outcome", "userSelected": false}]}], "freeToShare": true, "component": [{"type": {"text": "qualifier"}, "classifier": [{"text": "is not a major topic"}]}]}]}], "useContext": [{"code": {"system": "http://terminology.hl7.org/CodeSystem/citation-classification-type", "code": "fevir-platform-use", "display": "FEvIR Platform Use"}, "valueCodeableConcept": {"coding": [{"system": "http://terminology.hl7.org/CodeSystem/citation-artifact-classifier", "code": "medline-base", "display": "Medline Base", "userSelected": false}]}}], "classification": [{"type": {"coding": [{"system": "http://terminology.hl7.org/CodeSystem/citation-classification-type", "code": "citation-source", "display": "Citation Source"}]}, "classifier": [{"text": "MEDLINE"}]}, {"type": {"coding": [{"system": "http://terminology.hl7.org/CodeSystem/citation-classification-type", "code": "medline-owner", "display": "MEDLINE Citation Owner"}]}, "classifier": [{"coding": [{"system": "https://www.nlm.nih.gov/bsd/licensee/elements_descriptions.html#owner_value", "code": "NLM", "display": "National Library of Medicine, Index Section", "userSelected": false}]}]}], "statusDate": [{"activity": {"coding": [{"system": "http://hl7.org/fhir/citation-status-type", "code": "pubmed-pubstatus-received", "display": "PubMed Pubstatus of Received"}]}, "period": {"end": "2014-07-23"}}, {"activity": {"coding": [{"system": "http://hl7.org/fhir/citation-status-type", "code": "pubmed-pubstatus-accepted", "display": "PubMed Pubstatus of Accepted"}]}, "period": {"end": "2014-09-19"}}, {"activity": {"coding": [{"system": "http://hl7.org/fhir/citation-status-type", "code": "pubmed-pubstatus-entrez", "display": "PubMed Pubstatus of Entrez"}]}, "period": {"end": "2014-10-11T06:00:00.000Z"}}, {"activity": {"coding": [{"system": "http://hl7.org/fhir/citation-status-type", "code": "pubmed-pubstatus-pubmed", "display": "PubMed Pubstatus of Pubmed"}]}, "period": {"end": "2014-10-11T06:00:00.000Z"}}, {"activity": {"coding": [{"system": "http://hl7.org/fhir/citation-status-type", "code": "pubmed-pubstatus-medline", "display": "PubMed Pubstatus of Medline"}]}, "period": {"end": "2016-04-08T06:00:00.000Z"}}], "citedArtifact": {"identifier": [{"system": "https://pubmed.ncbi.nlm.nih.gov", "value": "25301760"}, {"system": "https://doi.org", "value": "10.1016/j.eururo.2014.09.032"}, {"type": {"text": "pii", "coding": [{"system": "http://terminology.hl7.org/CodeSystem/v2-0203", "code": "ACSN", "display": "Accession ID"}]}, "value": "S0302-2838(14)00969-5"}], "title": [{"text": "Survival with Newly Diagnosed Metastatic Prostate Cancer in the \"Docetaxel Era\": Data from 917 Patients in the Control Arm of the STAMPEDE Trial (MRC PR08, CRUK/06/019).", "language": {"coding": [{"system": "urn:ietf:bcp:47", "code": "en", "display": "English"}]}, "type": [{"coding": [{"system": "http://terminology.hl7.org/CodeSystem/title-type", "code": "primary", "display": "Primary title"}]}]}], "abstract": [{"type": {"coding": [{"system": "http://terminology.hl7.org/CodeSystem/cited-artifact-abstract-type", "code": "primary-human-use", "display": "Primary human use"}]}, "text": "**BACKGROUND:** Prostate cancer (PCa) is the second most common disease among men worldwide. It is important to know survival outcomes and prognostic factors for this disease. Recruitment for the largest therapeutic randomised controlled trial in PCa--the Systemic Therapy in Advancing or Metastatic Prostate Cancer: Evaluation of Drug Efficacy: A Multi-Stage Multi-Arm Randomised Controlled Trial (STAMPEDE)--includes men with newly diagnosed metastatic PCa who are commencing long-term androgen deprivation therapy (ADT); the control arm provides valuable data for a prospective cohort.\n**OBJECTIVE:** Describe survival outcomes, along with current treatment standards and factors associated with prognosis, to inform future trial design in this patient group.\n**DESIGN, SETTING, AND PARTICIPANTS:** STAMPEDE trial control arm comprising men newly diagnosed with M1 disease who were recruited between October 2005 and January 2014.\n**OUTCOME MEASUREMENTS AND STATISTICAL ANALYSIS:** Overall survival (OS) and failure-free survival (FFS) were reported by primary disease characteristics using Kaplan-Meier methods. Hazard ratios and 95% confidence intervals (CIs) were derived from multivariate Cox models.\n**RESULTS AND LIMITATIONS:** A cohort of 917 men with newly diagnosed M1 disease was recruited to the control arm in the specified interval. Median follow-up was 20 mo. Median age at randomisation was 66 yr (interquartile range [IQR]: 61-71), and median prostate-specific antigen level was 112 ng/ml (IQR: 34-373). Most men (n=574; 62%) had bone-only metastases, whereas 237 (26%) had both bone and soft tissue metastases; soft tissue metastasis was found mainly in distant lymph nodes. There were 238 deaths, 202 (85%) from PCa. Median FFS was 11 mo; 2-yr FFS was 29% (95% CI, 25-33). Median OS was 42 mo; 2-yr OS was 72% (95% CI, 68-76). Survival time was influenced by performance status, age, Gleason score, and metastases distribution. Median survival after FFS event was 22 mo. Trial eligibility criteria meant men were younger and fitter than general PCa population.\n**CONCLUSIONS:** Survival remains disappointing in men presenting with M1 disease who are started on only long-term ADT, despite active treatments being available at first failure of ADT. Importantly, men with M1 disease now spend the majority of their remaining life in a state of castration-resistant relapse.\n**PATIENT SUMMARY:** Results from this control arm cohort found survival is relatively short and highly influenced by patient age, fitness, and where prostate cancer has spread in the body.", "copyright": "Copyright \u00a9 2014 The Authors. Published by Elsevier B.V. All rights reserved."}], "relatesTo": [{"type": "comment-in", "classifier": [{"coding": [{"system": "https://www.nlm.nih.gov/mesh", "code": "D016420", "display": "Comment", "userSelected": false}]}], "citation": "Eur Urol. 2015 Jun;67(6):1039-1041. doi: 10.1016/j.eururo.2014.12.004.", "targetReference": {"identifier": {"system": "https://pubmed.ncbi.nlm.nih.gov", "value": "25544634", "assigner": {"display": "NLM"}}, "reference": "https://pubmed.ncbi.nlm.nih.gov/25544634/"}}, {"type": "comment-in", "classifier": [{"coding": [{"system": "https://www.nlm.nih.gov/mesh", "code": "D016420", "display": "Comment", "userSelected": false}]}], "citation": "J Urol. 2016 Feb;195(2):350. doi: 10.1016/j.juro.2015.10.165.", "targetReference": {"identifier": {"system": "https://pubmed.ncbi.nlm.nih.gov", "value": "26852973", "assigner": {"display": "NLM"}}, "reference": "https://pubmed.ncbi.nlm.nih.gov/26852973/"}}], "publicationForm": [{"publishedIn": {"type": {"coding": [{"system": "http://terminology.hl7.org/CodeSystem/published-in-type", "code": "D020492", "display": "Periodical"}]}, "identifier": [{"type": {"coding": [{"system": "https://www.nlm.nih.gov/bsd/licensee/elements_descriptions.html#issn", "code": "Electronic", "display": "Electronic"}], "text": "Electronic ISSN Type"}, "value": "1873-7560", "system": "https://portal.issn.org"}, {"type": {"text": "ISOAbbreviation", "coding": [{"system": "http://terminology.hl7.org/CodeSystem/v2-0203", "code": "XX", "display": "Organization identifier"}]}, "system": "https://www.issn.org/services/online-services/access-to-the-ltwa/", "value": "Eur Urol"}, {"type": {"text": "ISSN Linking", "coding": [{"system": "http://terminology.hl7.org/CodeSystem/v2-0203", "code": "XX", "display": "Organization identifier"}]}, "system": "https://www.issn.org/understanding-the-issn/assignment-rules/the-issn-l-for-publications-on-multiple-media/", "value": "0302-2838"}, {"type": {"text": "Medline Title Abbreviation", "coding": [{"system": "http://terminology.hl7.org/CodeSystem/v2-0203", "code": "XX", "display": "Organization identifier"}]}, "system": "https://www.nlm.nih.gov/tsd/cataloging/contructitleabbre.html", "value": "Eur Urol"}, {"type": {"text": "NLM Unique ID", "coding": [{"system": "http://terminology.hl7.org/CodeSystem/v2-0203", "code": "XX", "display": "Organization identifier"}]}, "system": "https://locatorplus.gov/cgi-bin/Pwebrecon.cgi?DB=local", "value": "7512719"}], "title": "European urology", "publisherLocation": "Switzerland"}, "citedMedium": {"coding": [{"system": "http://terminology.hl7.org/CodeSystem/cited-medium", "code": "internet", "display": "Internet"}]}, "volume": "67", "issue": "6", "articleDate": "2015-06", "pageString": "1028-1038"}, {"citedMedium": {"coding": [{"system": "http://terminology.hl7.org/CodeSystem/cited-medium", "code": "internet-without-issue", "display": "Internet without issue"}]}, "articleDate": "2014-10-06"}], "webLocation": [{"classifier": [{"coding": [{"system": "http://terminology.hl7.org/CodeSystem/artifact-url-classifier", "code": "abstract", "display": "Abstract"}]}], "url": "https://pubmed.ncbi.nlm.nih.gov/25301760/"}, {"url": "https://doi.org/10.1016/j.eururo.2014.09.032", "classifier": [{"coding": [{"system": "http://terminology.hl7.org/CodeSystem/artifact-url-classifier", "code": "doi-based", "display": "DOI Based"}]}]}], "classification": [{"type": {"coding": [{"system": "http://terminology.hl7.org/CodeSystem/cited-artifact-classification-type", "code": "publishing-model", "display": "Publishing Model", "userSelected": false}]}, "classifier": [{"coding": [{"system": "http://terminology.hl7.org/CodeSystem/citation-artifact-classifier", "code": "Print-Electronic", "display": "Print Electronic", "userSelected": false}]}]}, {"type": {"coding": [{"system": "http://terminology.hl7.org/CodeSystem/cited-artifact-classification-type", "code": "keyword", "display": "Keyword", "userSelected": false}]}, "artifactAssessment": [{"reference": "#keywords0", "type": "ArtifactAssessment", "display": "Keywords provided by NOTNLM"}]}, {"type": {"coding": [{"system": "http://terminology.hl7.org/CodeSystem/cited-artifact-classification-type", "code": "chemical", "display": "Chemical", "userSelected": false}]}, "classifier": [{"coding": [{"system": "https://www.nlm.nih.gov/mesh", "code": "D000726", "display": "Androgen Antagonists", "userSelected": false}]}, {"coding": [{"system": "https://www.nlm.nih.gov/mesh", "code": "D043823", "display": "Taxoids", "userSelected": false}]}, {"coding": [{"system": "https://www.cas.org/support/documentation/chemical-substances", "code": "15H5577CQD", "userSelected": false}, {"system": "https://www.nlm.nih.gov/mesh", "code": "D000077143", "display": "Docetaxel", "userSelected": false}]}, {"coding": [{"system": "https://www.cas.org/support/documentation/chemical-substances", "code": "EC 3.4.21.77", "userSelected": false}, {"system": "https://www.nlm.nih.gov/mesh", "code": "D017430", "display": "Prostate-Specific Antigen", "userSelected": false}]}]}, {"type": {"coding": [{"system": "http://terminology.hl7.org/CodeSystem/cited-artifact-classification-type", "code": "mesh-heading", "display": "MeSH heading"}]}, "artifactAssessment": [{"reference": "#meshHeading0", "type": "ArtifactAssessment"}]}, {"type": {"coding": [{"system": "http://terminology.hl7.org/CodeSystem/cited-artifact-classification-type", "code": "publication-type", "display": "Publication type"}]}, "classifier": [{"coding": [{"system": "https://www.nlm.nih.gov/mesh", "code": "D016428", "display": "Journal Article", "userSelected": false}]}, {"coding": [{"system": "https://www.nlm.nih.gov/mesh", "code": "D016449", "display": "Randomized Controlled Trial", "userSelected": false}]}, {"coding": [{"system": "https://www.nlm.nih.gov/mesh", "code": "D013485", "display": "Research Support, Non-U.S. Gov't", "userSelected": false}]}]}, {"type": {"coding": [{"system": "http://terminology.hl7.org/CodeSystem/cited-artifact-classification-type", "code": "knowledge-artifact-type", "display": "Knowledge Artifact Type", "userSelected": false}]}, "classifier": [{"coding": [{"system": "http://terminology.hl7.org/CodeSystem/citation-artifact-classifier", "code": "D016428", "display": "Journal Article", "userSelected": false}]}], "artifactAssessment": [{"display": "Classifier added by Computable Publishing LLC"}]}, {"type": {"coding": [{"system": "http://terminology.hl7.org/CodeSystem/cited-artifact-classification-type", "code": "citation-subset", "display": "Citation subset", "userSelected": false}]}, "classifier": [{"coding": [{"system": "https://www.nlm.nih.gov/bsd/licensee/elements_descriptions.html#citationsubset", "code": "IM", "display": "IM", "userSelected": false}]}]}], "contributorship": {"entry": [{"contributor": {"reference": "#contributor0", "type": "Practitioner", "display": "James ND"}, "forenameInitials": "ND", "affiliation": [{"display": "University of Warwick, Coventry, UK. Electronic address: N.D.James@warwick.ac.uk."}]}, {"contributor": {"reference": "#contributor1", "type": "Practitioner", "display": "Spears MR"}, "forenameInitials": "MR", "affiliation": [{"display": "Medical Research Council Clinical Trials Unit at University College London, London, UK."}]}, {"contributor": {"reference": "#contributor2", "type": "Practitioner", "display": "Clarke NW"}, "forenameInitials": "NW", "affiliation": [{"display": "Department of Urology, The Christie NHS Foundation Trust, Manchester, UK."}]}, {"contributor": {"reference": "#contributor3", "type": "Practitioner", "display": "Dearnaley DP"}, "forenameInitials": "DP", "affiliation": [{"display": "Institute of Cancer Research, London, UK; The Royal Marsden NHS Foundation Trust, London and Sutton, UK."}]}, {"contributor": {"reference": "#contributor4", "type": "Practitioner", "display": "De Bono JS"}, "forenameInitials": "JS", "affiliation": [{"display": "Institute of Cancer Research, London, UK; The Royal Marsden NHS Foundation Trust, London and Sutton, UK."}]}, {"contributor": {"reference": "#contributor5", "type": "Practitioner", "display": "Gale J"}, "forenameInitials": "J", "affiliation": [{"display": "Queen Alexandra Hospital, Portsmouth, UK."}]}, {"contributor": {"reference": "#contributor6", "type": "Practitioner", "display": "Hetherington J"}, "forenameInitials": "J", "affiliation": [{"display": "Hull & East Yorkshire Hospitals NHS Trust, Hull, UK."}]}, {"contributor": {"reference": "#contributor7", "type": "Practitioner", "display": "Hoskin PJ"}, "forenameInitials": "PJ", "affiliation": [{"display": "Mount Vernon Hospital, Northwood, Middlesex, UK."}]}, {"contributor": {"reference": "#contributor8", "type": "Practitioner", "display": "Jones RJ"}, "forenameInitials": "RJ", "affiliation": [{"display": "University of Glasgow, Beatson West of Scotland Cancer Centre, Glasgow, UK."}]}, {"contributor": {"reference": "#contributor9", "type": "Practitioner", "display": "Laing R"}, "forenameInitials": "R", "affiliation": [{"display": "Royal Surrey County Hospital, Guildford, UK."}]}, {"contributor": {"reference": "#contributor10", "type": "Practitioner", "display": "Lester JF"}, "forenameInitials": "JF", "affiliation": [{"display": "Velindre Hospital, Cardiff, UK."}]}, {"contributor": {"reference": "#contributor11", "type": "Practitioner", "display": "McLaren D"}, "forenameInitials": "D", "affiliation": [{"display": "Western General Hospital, Edinburgh, UK."}]}, {"contributor": {"reference": "#contributor12", "type": "Practitioner", "display": "Parker CC"}, "forenameInitials": "CC", "affiliation": [{"display": "Institute of Cancer Research, London, UK; The Royal Marsden NHS Foundation Trust, London and Sutton, UK."}]}, {"contributor": {"reference": "#contributor13", "type": "Practitioner", "display": "Parmar MKB"}, "forenameInitials": "MKB", "affiliation": [{"display": "Medical Research Council Clinical Trials Unit at University College London, London, UK."}]}, {"contributor": {"reference": "#contributor14", "type": "Practitioner", "display": "Ritchie AWS"}, "forenameInitials": "AWS", "affiliation": [{"display": "Medical Research Council Clinical Trials Unit at University College London, London, UK."}]}, {"contributor": {"reference": "#contributor15", "type": "Practitioner", "display": "Russell JM"}, "forenameInitials": "JM", "affiliation": [{"display": "Institute of Cancer Sciences, University of Glasgow, Glasgow, UK."}]}, {"contributor": {"reference": "#contributor16", "type": "Practitioner", "display": "Strebel RT"}, "forenameInitials": "RT", "affiliation": [{"display": "Kantonsspital Gra\u00fcbunden, Chur, Switzerland."}]}, {"contributor": {"reference": "#contributor17", "type": "Practitioner", "display": "Thalmann GN"}, "forenameInitials": "GN", "affiliation": [{"display": "Department of Urology, University Hospital, Bern, Switzerland."}]}, {"contributor": {"reference": "#contributor18", "type": "Practitioner", "display": "Mason MD"}, "forenameInitials": "MD", "affiliation": [{"display": "Velindre Hospital, Cardiff, UK."}]}, {"contributor": {"reference": "#contributor19", "type": "Practitioner", "display": "Sydes MR"}, "forenameInitials": "MR", "affiliation": [{"display": "Medical Research Council Clinical Trials Unit at University College London, London, UK."}]}], "complete": true}}, "approvalDate": "2016-04-07", "lastReviewDate": "2022-12-08", "currentState": [{"coding": [{"system": "http://hl7.org/fhir/citation-status-type", "code": "medline-medline", "display": "Medline Citation Status of Medline"}]}, {"coding": [{"system": "http://hl7.org/fhir/citation-status-type", "code": "pubmed-publication-status-ppublish", "display": "PubMed PublicationStatus of ppublish"}]}], "title": "25301760 Survival with Newly Diagnosed Metastatic Prostate Cancer in the \"Docetaxel Era\": Data from 917 Patients in the Control Arm of the STAMPEDE Trial (MRC PR08, CRUK/06/019).", "identifier": [{"type": {"text": "FEvIR Object Identifier", "coding": [{"system": "http://terminology.hl7.org/CodeSystem/v2-0203", "code": "ACSN", "display": "Accession ID"}]}, "system": "https://fevir.net/FOI", "value": "179617", "assigner": {"display": "Computable Publishing LLC"}}, {"system": "https://pubmed.ncbi.nlm.nih.gov", "value": "25301760"}], "status": "active", "url": "https://fevir.net/resources/Citation/179617", "id": "179617", "publisher": "Computable Publishing LLC", "copyright": "https://creativecommons.org/licenses/by-nc-sa/4.0/", "contact": [{"telecom": [{"system": "email", "value": "support@computablepublishing.com"}]}], "author": [{"name": "Computable Publishing\u00ae: MEDLINE-to-FEvIR Converter"}], "extension": [{"url": "http://hl7.org/fhir/uv/ebm/StructureDefinition/artifact-publication-status", "valueCodeableConcept": {"coding": [{"system": "http://terminology.hl7.org/CodeSystem/cited-artifact-status-type", "code": "active", "display": "Active"}]}}], "description": "This Citation Resource is referenced in an example for the EBMonFHIR Implementation Guide."}