{"id": "179627", "url": "https://fevir.net/resources/Citation/179627", "meta": {"profile": ["http://hl7.org/fhir/uv/ebm/StructureDefinition/journal-article-citation"], "versionId": "21", "lastUpdated": "2025-10-13T12:34:35.118Z"}, "title": "19091394 Endocrine treatment, with or without radiotherapy, in locally advanced prostate cancer (SPCG-7/SFUO-3): an open randomised phase III trial.", "author": [{"name": "Computable Publishing\u00ae: MEDLINE-to-FEvIR Converter"}], "status": "active", "contact": [{"telecom": [{"value": "support@computablepublishing.com", "system": "email"}]}], "contained": [{"id": "contributor0", "name": [{"given": ["Anders"], "family": "Widmark"}], "resourceType": "Practitioner"}, {"id": "contributor1", "name": [{"given": ["Olbj\u00f8rn"], "family": "Klepp"}], "resourceType": "Practitioner"}, {"id": "contributor2", "name": [{"given": ["Arne"], "family": "Solberg"}], "resourceType": "Practitioner"}, {"id": "contributor3", "name": [{"given": ["Jan-Erik"], "family": "Damber"}], "resourceType": "Practitioner"}, {"id": "contributor4", "name": [{"given": ["Anders"], "family": "Angelsen"}], "resourceType": "Practitioner"}, {"id": "contributor5", "name": [{"given": ["Per"], "family": "Fransson"}], "resourceType": "Practitioner"}, {"id": "contributor6", "name": [{"given": ["Jo-Asmund"], "family": "Lund"}], "resourceType": "Practitioner"}, {"id": "contributor7", "name": [{"given": ["Ilker"], "family": "Tasdemir"}], "resourceType": "Practitioner"}, {"id": "contributor8", "name": [{"given": ["Morten"], "family": "Hoyer"}], "resourceType": "Practitioner"}, {"id": "contributor9", "name": [{"given": ["Fredrik"], "family": "Wiklund"}], "resourceType": "Practitioner"}, {"id": "contributor10", "name": [{"given": ["Sophie D"], "family": "Foss\u00e5"}], "resourceType": "Practitioner"}, {"id": "contributor11", "name": "Scandinavian Prostate Cancer Group Study 7", "resourceType": "Organization"}, {"id": "contributor12", "name": "Swedish Association for Urological Oncology 3", "resourceType": "Organization"}, {"id": "meshHeading0", "content": [{"type": {"text": "components (if present) include qualifier codings", "coding": [{"code": "mesh-heading", "system": "http://terminology.hl7.org/CodeSystem/cited-artifact-classification-type", "display": "MeSH heading"}]}, "component": [{"type": {"text": "qualifier"}, "classifier": [{"text": "is not a major topic"}]}], "classifier": [{"coding": [{"code": "D000368", "system": "https://www.nlm.nih.gov/mesh", "display": "Aged", "userSelected": false}]}], "freeToShare": true}, {"type": {"text": "components (if present) include qualifier codings", "coding": [{"code": "mesh-heading", "system": "http://terminology.hl7.org/CodeSystem/cited-artifact-classification-type", "display": "MeSH heading"}]}, "component": [{"type": {"text": "qualifier"}, "classifier": [{"text": "is not a major topic"}]}, {"type": {"text": "qualifier"}, "component": [{"type": {"text": "is Major topic"}, "classifier": [{"coding": [{"code": "C49488", "system": "http://ncicb.nci.nih.gov/xml/owl/EVS/Thesaurus.owl", "display": "Yes"}]}]}], "classifier": [{"coding": [{"code": "Q000627", "system": "https://www.nlm.nih.gov/mesh", "display": "therapeutic use"}]}]}], "classifier": [{"coding": [{"code": "D000726", "system": "https://www.nlm.nih.gov/mesh", "display": "Androgen Antagonists", "userSelected": false}]}], "freeToShare": true}, {"type": {"text": "components (if present) include qualifier codings", "coding": [{"code": "mesh-heading", "system": "http://terminology.hl7.org/CodeSystem/cited-artifact-classification-type", "display": "MeSH heading"}]}, "component": [{"type": {"text": "qualifier"}, "classifier": [{"text": "is not a major topic"}]}], "classifier": [{"coding": [{"code": "D003131", "system": "https://www.nlm.nih.gov/mesh", "display": "Combined Modality Therapy", "userSelected": false}]}], "freeToShare": true}, {"type": {"text": "components (if present) include qualifier codings", "coding": [{"code": "mesh-heading", "system": "http://terminology.hl7.org/CodeSystem/cited-artifact-classification-type", "display": "MeSH heading"}]}, "component": [{"type": {"text": "qualifier"}, "classifier": [{"text": "is not a major topic"}]}, {"type": {"text": "qualifier"}, "component": [{"type": {"text": "is Major topic"}, "classifier": [{"coding": [{"code": "C49488", "system": "http://ncicb.nci.nih.gov/xml/owl/EVS/Thesaurus.owl", "display": "Yes"}]}]}], "classifier": [{"coding": [{"code": "Q000627", "system": "https://www.nlm.nih.gov/mesh", "display": "therapeutic use"}]}]}], "classifier": [{"coding": [{"code": "D005485", "system": "https://www.nlm.nih.gov/mesh", "display": "Flutamide", "userSelected": false}]}], "freeToShare": true}, {"type": {"text": "components (if present) include qualifier codings", "coding": [{"code": "mesh-heading", "system": "http://terminology.hl7.org/CodeSystem/cited-artifact-classification-type", "display": "MeSH heading"}]}, "component": [{"type": {"text": "qualifier"}, "classifier": [{"text": "is not a major topic"}]}], "classifier": [{"coding": [{"code": "D006801", "system": "https://www.nlm.nih.gov/mesh", "display": "Humans", "userSelected": false}]}], "freeToShare": true}, {"type": {"text": "components (if present) include qualifier codings", "coding": [{"code": "mesh-heading", "system": "http://terminology.hl7.org/CodeSystem/cited-artifact-classification-type", "display": "MeSH heading"}]}, "component": [{"type": {"text": "qualifier"}, "classifier": [{"text": "is not a major topic"}]}], "classifier": [{"coding": [{"code": "D008297", "system": "https://www.nlm.nih.gov/mesh", "display": "Male", "userSelected": false}]}], "freeToShare": true}, {"type": {"text": "components (if present) include qualifier codings", "coding": [{"code": "mesh-heading", "system": "http://terminology.hl7.org/CodeSystem/cited-artifact-classification-type", "display": "MeSH heading"}]}, "component": [{"type": {"text": "qualifier"}, "classifier": [{"text": "is not a major topic"}]}], "classifier": [{"coding": [{"code": "D011468", "system": "https://www.nlm.nih.gov/mesh", "display": "Prostatectomy", "userSelected": false}]}], "freeToShare": true}, {"type": {"text": "components (if present) include qualifier codings", "coding": [{"code": "mesh-heading", "system": "http://terminology.hl7.org/CodeSystem/cited-artifact-classification-type", "display": "MeSH heading"}]}, "component": [{"type": {"text": "qualifier"}, "classifier": [{"text": "is not a major topic"}]}, {"type": {"text": "qualifier"}, "component": [{"type": {"text": "is Major topic"}, "classifier": [{"coding": [{"code": "C49488", "system": "http://ncicb.nci.nih.gov/xml/owl/EVS/Thesaurus.owl", "display": "Yes"}]}]}], "classifier": [{"coding": [{"code": "Q000188", "system": "https://www.nlm.nih.gov/mesh", "display": "drug therapy"}]}]}, {"type": {"text": "qualifier"}, "component": [{"type": {"text": "is Major topic"}, "classifier": [{"coding": [{"code": "C49487", "system": "http://ncicb.nci.nih.gov/xml/owl/EVS/Thesaurus.owl", "display": "No"}]}]}], "classifier": [{"coding": [{"code": "Q000401", "system": "https://www.nlm.nih.gov/mesh", "display": "mortality"}]}]}, {"type": {"text": "qualifier"}, "component": [{"type": {"text": "is Major topic"}, "classifier": [{"coding": [{"code": "C49488", "system": "http://ncicb.nci.nih.gov/xml/owl/EVS/Thesaurus.owl", "display": "Yes"}]}]}], "classifier": [{"coding": [{"code": "Q000532", "system": "https://www.nlm.nih.gov/mesh", "display": "radiotherapy"}]}]}], "classifier": [{"coding": [{"code": "D011471", "system": "https://www.nlm.nih.gov/mesh", "display": "Prostatic Neoplasms", "userSelected": false}]}], "freeToShare": true}, {"type": {"text": "components (if present) include qualifier codings", "coding": [{"code": "mesh-heading", "system": "http://terminology.hl7.org/CodeSystem/cited-artifact-classification-type", "display": "MeSH heading"}]}, "component": [{"type": {"text": "qualifier"}, "classifier": [{"text": "is not a major topic"}]}], "classifier": [{"coding": [{"code": "D012720", "system": "https://www.nlm.nih.gov/mesh", "display": "Severity of Illness Index", "userSelected": false}]}], "freeToShare": true}, {"type": {"text": "components (if present) include qualifier codings", "coding": [{"code": "mesh-heading", "system": "http://terminology.hl7.org/CodeSystem/cited-artifact-classification-type", "display": "MeSH heading"}]}, "component": [{"type": {"text": "qualifier"}, "classifier": [{"text": "is not a major topic"}]}], "classifier": [{"coding": [{"code": "D016019", "system": "https://www.nlm.nih.gov/mesh", "display": "Survival Analysis", "userSelected": false}]}], "freeToShare": true}], "resourceType": "ArtifactAssessment", "artifactReference": {"type": "Citation", "reference": "#"}}], "copyright": "https://creativecommons.org/licenses/by-nc-sa/4.0/", "extension": [{"url": "http://hl7.org/fhir/uv/ebm/StructureDefinition/artifact-publication-status", "valueCodeableConcept": {"coding": [{"code": "active", "system": "http://terminology.hl7.org/CodeSystem/cited-artifact-status-type", "display": "Active"}]}}], "publisher": "Computable Publishing LLC", "identifier": [{"type": {"text": "FEvIR Object Identifier", "coding": [{"system": "http://terminology.hl7.org/CodeSystem/v2-0203", "code": "ACSN", "display": "Accession ID"}]}, "value": "179627", "system": "https://fevir.net/FOI", "assigner": {"display": "Computable Publishing LLC"}}, {"value": "19091394", "system": "https://pubmed.ncbi.nlm.nih.gov"}], "statusDate": [{"period": {"end": "2008-12-19T09:00:00.000Z"}, "activity": {"coding": [{"code": "pubmed-pubstatus-entrez", "system": "http://hl7.org/fhir/citation-status-type", "display": "PubMed Pubstatus of Entrez"}]}}, {"period": {"end": "2008-12-19T09:00:00.000Z"}, "activity": {"coding": [{"code": "pubmed-pubstatus-pubmed", "system": "http://hl7.org/fhir/citation-status-type", "display": "PubMed Pubstatus of Pubmed"}]}}, {"period": {"end": "2009-02-06T09:00:00.000Z"}, "activity": {"coding": [{"code": "pubmed-pubstatus-medline", "system": "http://hl7.org/fhir/citation-status-type", "display": "PubMed Pubstatus of Medline"}]}}], "useContext": [{"code": {"code": "fevir-platform-use", "system": "http://terminology.hl7.org/CodeSystem/citation-classification-type", "display": "FEvIR Platform Use"}, "valueCodeableConcept": {"coding": [{"code": "medline-base", "system": "http://terminology.hl7.org/CodeSystem/citation-artifact-classifier", "display": "Medline Base", "userSelected": false}]}}], "approvalDate": "2009-02-05", "currentState": [{"coding": [{"code": "medline-medline", "system": "http://hl7.org/fhir/citation-status-type", "display": "Medline Citation Status of Medline"}]}, {"coding": [{"code": "pubmed-publication-status-ppublish", "system": "http://hl7.org/fhir/citation-status-type", "display": "PubMed PublicationStatus of ppublish"}]}], "resourceType": "Citation", "citedArtifact": {"title": [{"text": "Endocrine treatment, with or without radiotherapy, in locally advanced prostate cancer (SPCG-7/SFUO-3): an open randomised phase III trial.", "type": [{"coding": [{"code": "primary", "system": "http://terminology.hl7.org/CodeSystem/title-type", "display": "Primary title"}]}], "language": {"coding": [{"system": "urn:ietf:bcp:47", "code": "en", "display": "English"}]}}], "abstract": [{"text": "**BACKGROUND:** Several studies have shown the efficacy of endocrine therapy in combination with radiotherapy in high-risk prostate cancer. To assess the effect of radiotherapy, we did an open phase III study comparing endocrine therapy with and without local radiotherapy, followed by castration on progression.\n**METHODS:** This randomised trial included men from 47 centres in Norway, Sweden, and Denmark. Between February, 1996, and December, 2002, 875 patients with locally advanced prostate cancer (T3; 78%; PSA&lt;70; N0; M0) were centrally randomly assigned by computer to endocrine treatment alone (3 months of total androgen blockade followed by continuous endocrine treatment using flutamide; 439 patients), or to the same endocrine treatment combined with radiotherapy (436 patients). The primary endpoint was prostate-cancer-specific survival, and analysis was by intention to treat. This study is registered as an international standard randomised controlled trial, number ISRCTN01534787.\n**FINDINGS:** After a median follow-up of 7.6 years, 79 men in the endocrine alone group and 37 men in the endocrine plus radiotherapy group had died of prostate cancer. The cumulative incidence at 10 years for prostate-cancer-specific mortality was 23.9% in the endocrine alone group and 11.9% in the endocrine plus radiotherapy group (difference 12.0%, 95% CI 4.9-19.1%), for a relative risk of 0.44 (0.30-0.66). At 10 years, the cumulative incidence for overall mortality was 39.4% in the endocrine alone group and 29.6% in the endocrine plus radiotherapy group (difference 9.8%, 0.8-18.8%), for a relative risk of 0.68 (0.52-0.89). Cumulative incidence at 10 years for PSA recurrence was substantially higher in men in the endocrine-alone group (74.7%vs 25.9%, p&lt;0.0001; HR 0.16; 0.12-0.20). After 5 years, urinary, rectal, and sexual problems were slightly more frequent in the endocrine plus radiotherapy group.\n**INTERPRETATION:** In patients with locally advanced or high-risk local prostate cancer, addition of local radiotherapy to endocrine treatment halved the 10-year prostate-cancer-specific mortality, and substantially decreased overall mortality with fully acceptable risk of side-effects compared with endocrine treatment alone. In the light of these data, endocrine treatment plus radiotherapy should be the new standard.", "type": {"coding": [{"code": "primary-human-use", "system": "http://terminology.hl7.org/CodeSystem/cited-artifact-abstract-type", "display": "Primary human use"}]}}], "relatesTo": [{"type": "correction-in", "citation": "Lancet. 2009 Apr 4;373(9670):1174", "classifier": [{"coding": [{"code": "D016425", "system": "https://www.nlm.nih.gov/mesh", "display": "Published Erratum", "userSelected": false}]}]}, {"type": "comment-in", "citation": "Lancet. 2009 Jan 24;373(9660):274-6. doi: 10.1016/S0140-6736(08)61816-4.", "classifier": [{"coding": [{"code": "D016420", "system": "https://www.nlm.nih.gov/mesh", "display": "Comment", "userSelected": false}]}], "targetReference": {"reference": "https://pubmed.ncbi.nlm.nih.gov/19091392/", "identifier": {"value": "19091392", "system": "https://pubmed.ncbi.nlm.nih.gov", "assigner": {"display": "NLM"}}}}, {"type": "comment-in", "citation": "Nat Rev Urol. 2009 May;6(5):250-1. doi: 10.1038/nrurol.2009.56.", "classifier": [{"coding": [{"code": "D016420", "system": "https://www.nlm.nih.gov/mesh", "display": "Comment", "userSelected": false}]}], "targetReference": {"reference": "https://pubmed.ncbi.nlm.nih.gov/19424171/", "identifier": {"value": "19424171", "system": "https://pubmed.ncbi.nlm.nih.gov", "assigner": {"display": "NLM"}}}}, {"type": "comment-in", "citation": "Ann Intern Med. 2009 Jun 16;150(12):JC6-6. doi: 10.7326/0003-4819-150-12-200906160-02006.", "classifier": [{"coding": [{"code": "D016420", "system": "https://www.nlm.nih.gov/mesh", "display": "Comment", "userSelected": false}]}], "targetReference": {"reference": "https://pubmed.ncbi.nlm.nih.gov/19528551/", "identifier": {"value": "19528551", "system": "https://pubmed.ncbi.nlm.nih.gov", "assigner": {"display": "NLM"}}}}, {"type": "comment-in", "citation": "Eur Urol. 2009 May;55(5):1240. doi: 10.1016/j.eururo.2009.01.059.", "classifier": [{"coding": [{"code": "D016420", "system": "https://www.nlm.nih.gov/mesh", "display": "Comment", "userSelected": false}]}], "targetReference": {"reference": "https://pubmed.ncbi.nlm.nih.gov/19650206/", "identifier": {"value": "19650206", "system": "https://pubmed.ncbi.nlm.nih.gov", "assigner": {"display": "NLM"}}}}, {"type": "comment-in", "citation": "Eur Urol. 2009 May;55(5):1239-40. doi: 10.1016/j.eururo.2009.01.058.", "classifier": [{"coding": [{"code": "D016420", "system": "https://www.nlm.nih.gov/mesh", "display": "Comment", "userSelected": false}]}], "targetReference": {"reference": "https://pubmed.ncbi.nlm.nih.gov/19650231/", "identifier": {"value": "19650231", "system": "https://pubmed.ncbi.nlm.nih.gov", "assigner": {"display": "NLM"}}}}], "identifier": [{"value": "19091394", "system": "https://pubmed.ncbi.nlm.nih.gov"}, {"value": "10.1016/S0140-6736(08)61815-2", "system": "https://doi.org"}, {"type": {"text": "pii", "coding": [{"system": "http://terminology.hl7.org/CodeSystem/v2-0203", "code": "ACSN", "display": "Accession ID"}]}, "value": "S0140-6736(08)61815-2"}], "webLocation": [{"url": "https://pubmed.ncbi.nlm.nih.gov/19091394/", "classifier": [{"coding": [{"code": "abstract", "system": "http://terminology.hl7.org/CodeSystem/artifact-url-classifier", "display": "Abstract"}]}]}, {"url": "https://doi.org/10.1016/S0140-6736(08)61815-2", "classifier": [{"coding": [{"code": "doi-based", "system": "http://terminology.hl7.org/CodeSystem/artifact-url-classifier", "display": "DOI Based"}]}]}], "classification": [{"type": {"coding": [{"code": "publishing-model", "system": "http://terminology.hl7.org/CodeSystem/cited-artifact-classification-type", "display": "Publishing Model", "userSelected": false}]}, "classifier": [{"coding": [{"code": "Print-Electronic", "system": "http://terminology.hl7.org/CodeSystem/citation-artifact-classifier", "display": "Print Electronic", "userSelected": false}]}]}, {"type": {"coding": [{"code": "chemical", "system": "http://terminology.hl7.org/CodeSystem/cited-artifact-classification-type", "display": "Chemical", "userSelected": false}]}, "classifier": [{"coding": [{"code": "D000726", "system": "https://www.nlm.nih.gov/mesh", "display": "Androgen Antagonists", "userSelected": false}]}, {"coding": [{"code": "76W6J0943E", "system": "https://www.cas.org/support/documentation/chemical-substances", "userSelected": false}, {"code": "D005485", "system": "https://www.nlm.nih.gov/mesh", "display": "Flutamide", "userSelected": false}]}]}, {"type": {"coding": [{"code": "mesh-heading", "system": "http://terminology.hl7.org/CodeSystem/cited-artifact-classification-type", "display": "MeSH heading"}]}, "artifactAssessment": [{"type": "ArtifactAssessment", "reference": "#meshHeading0"}]}, {"type": {"coding": [{"code": "publication-type", "system": "http://terminology.hl7.org/CodeSystem/cited-artifact-classification-type", "display": "Publication type"}]}, "classifier": [{"coding": [{"code": "D017428", "system": "https://www.nlm.nih.gov/mesh", "display": "Clinical Trial, Phase III", "userSelected": false}]}, {"coding": [{"code": "D016428", "system": "https://www.nlm.nih.gov/mesh", "display": "Journal Article", "userSelected": false}]}, {"coding": [{"code": "D016448", "system": "https://www.nlm.nih.gov/mesh", "display": "Multicenter Study", "userSelected": false}]}, {"coding": [{"code": "D016449", "system": "https://www.nlm.nih.gov/mesh", "display": "Randomized Controlled Trial", "userSelected": false}]}, {"coding": [{"code": "D013485", "system": "https://www.nlm.nih.gov/mesh", "display": "Research Support, Non-U.S. Gov't", "userSelected": false}]}]}, {"type": {"coding": [{"code": "knowledge-artifact-type", "system": "http://terminology.hl7.org/CodeSystem/cited-artifact-classification-type", "display": "Knowledge Artifact Type", "userSelected": false}]}, "classifier": [{"coding": [{"code": "D016428", "system": "http://terminology.hl7.org/CodeSystem/citation-artifact-classifier", "display": "Journal Article", "userSelected": false}]}], "artifactAssessment": [{"display": "Classifier added by Computable Publishing LLC"}]}, {"type": {"coding": [{"code": "citation-subset", "system": "http://terminology.hl7.org/CodeSystem/cited-artifact-classification-type", "display": "Citation subset", "userSelected": false}]}, "classifier": [{"coding": [{"code": "IM", "system": "https://www.nlm.nih.gov/bsd/licensee/elements_descriptions.html#citationsubset", "display": "IM", "userSelected": false}]}]}], "contributorship": {"entry": [{"affiliation": [{"display": "Department of Radiation Sciences, Oncology, Ume\u00e5 University, Ume\u00e5, Sweden."}], "contributor": {"type": "Practitioner", "display": "Widmark A", "reference": "#contributor0"}, "forenameInitials": "A"}, {"contributor": {"type": "Practitioner", "display": "Klepp O", "reference": "#contributor1"}, "forenameInitials": "O"}, {"contributor": {"type": "Practitioner", "display": "Solberg A", "reference": "#contributor2"}, "forenameInitials": "A"}, {"contributor": {"type": "Practitioner", "display": "Damber JE", "reference": "#contributor3"}, "forenameInitials": "JE"}, {"contributor": {"type": "Practitioner", "display": "Angelsen A", "reference": "#contributor4"}, "forenameInitials": "A"}, {"contributor": {"type": "Practitioner", "display": "Fransson P", "reference": "#contributor5"}, "forenameInitials": "P"}, {"contributor": {"type": "Practitioner", "display": "Lund JA", "reference": "#contributor6"}, "forenameInitials": "JA"}, {"contributor": {"type": "Practitioner", "display": "Tasdemir I", "reference": "#contributor7"}, "forenameInitials": "I"}, {"contributor": {"type": "Practitioner", "display": "Hoyer M", "reference": "#contributor8"}, "forenameInitials": "M"}, {"contributor": {"type": "Practitioner", "display": "Wiklund F", "reference": "#contributor9"}, "forenameInitials": "F"}, {"contributor": {"type": "Practitioner", "display": "Foss\u00e5 SD", "reference": "#contributor10"}, "forenameInitials": "SD"}, {"contributor": {"type": "Organization", "display": "Scandinavian Prostate Cancer Group Study 7", "reference": "#contributor11"}}, {"contributor": {"type": "Organization", "display": "Swedish Association for Urological Oncology 3", "reference": "#contributor12"}}], "complete": true}, "publicationForm": [{"issue": "9660", "volume": "373", "pageString": "301-8", "articleDate": "2009-01-24", "citedMedium": {"coding": [{"code": "internet", "system": "http://terminology.hl7.org/CodeSystem/cited-medium", "display": "Internet"}]}, "publishedIn": {"type": {"coding": [{"code": "D020492", "system": "http://terminology.hl7.org/CodeSystem/published-in-type", "display": "Periodical"}]}, "title": "Lancet (London, England)", "identifier": [{"type": {"text": "Electronic ISSN Type", "coding": [{"code": "Electronic", "system": "https://www.nlm.nih.gov/bsd/licensee/elements_descriptions.html#issn", "display": "Electronic"}]}, "value": "1474-547X", "system": "https://portal.issn.org"}, {"type": {"text": "ISOAbbreviation", "coding": [{"system": "http://terminology.hl7.org/CodeSystem/v2-0203", "code": "XX", "display": "Organization identifier"}]}, "value": "Lancet", "system": "https://www.issn.org/services/online-services/access-to-the-ltwa/"}, {"type": {"text": "ISSN Linking", "coding": [{"system": "http://terminology.hl7.org/CodeSystem/v2-0203", "code": "XX", "display": "Organization identifier"}]}, "value": "0140-6736", "system": "https://www.issn.org/understanding-the-issn/assignment-rules/the-issn-l-for-publications-on-multiple-media/"}, {"type": {"text": "Medline Title Abbreviation", "coding": [{"system": "http://terminology.hl7.org/CodeSystem/v2-0203", "code": "XX", "display": "Organization identifier"}]}, "value": "Lancet", "system": "https://www.nlm.nih.gov/tsd/cataloging/contructitleabbre.html"}, {"type": {"text": "NLM Unique ID", "coding": [{"system": "http://terminology.hl7.org/CodeSystem/v2-0203", "code": "XX", "display": "Organization identifier"}]}, "value": "2985213R", "system": "https://locatorplus.gov/cgi-bin/Pwebrecon.cgi?DB=local"}], "publisherLocation": "England"}}, {"articleDate": "2008-12-16", "citedMedium": {"coding": [{"code": "internet-without-issue", "system": "http://terminology.hl7.org/CodeSystem/cited-medium", "display": "Internet without issue"}]}}], "relatedIdentifier": [{"value": "ISRCTN01534787", "assigner": {"display": "ISRCTN"}}]}, "classification": [{"type": {"coding": [{"code": "citation-source", "system": "http://terminology.hl7.org/CodeSystem/citation-classification-type", "display": "Citation Source"}]}, "classifier": [{"text": "MEDLINE"}]}, {"type": {"coding": [{"code": "medline-owner", "system": "http://terminology.hl7.org/CodeSystem/citation-classification-type", "display": "MEDLINE Citation Owner"}]}, "classifier": [{"coding": [{"code": "NLM", "system": "https://www.nlm.nih.gov/bsd/licensee/elements_descriptions.html#owner_value", "display": "National Library of Medicine, Index Section", "userSelected": false}]}]}], "lastReviewDate": "2022-03-30", "description": "This Citation Resource is referenced in an example for the EBMonFHIR Implementation Guide."}