{"id": "247416", "url": "https://fevir.net/resources/Citation/247416", "meta": {"profile": ["http://hl7.org/fhir/uv/ebm/StructureDefinition/database-entry-citation"], "versionId": "9", "lastUpdated": "2025-10-20T13:05:40.425Z"}, "title": "Citation for Composition: ComparativeEvidenceReport: Association of Bariatric Surgery vs Medical Obesity Treatment With Long-term Medical Complications and Obesity-Related Comorbidities (2018 Norwegian Cohort)", "author": [{"name": "automated generation from FEvIR Platform"}], "status": "active", "contact": [{"telecom": [{"value": "support@computablepublishing.com", "system": "email"}]}], "summary": [{"text": "ComparativeEvidenceReport: Association of Bariatric Surgery vs Medical Obesity Treatment With Long-term Medical Complications and Obesity-Related Comorbidities (2018 Norwegian Cohort) [Database Entry]. Contributors: Brian S. Alper, Khalid Shahin, Joanne Dehnbostel [Authors]. In: Fast Evidence Interoperability Resources (FEvIR) Platform, FOI 178426. Revised May 16, 2024. Available at: https://fevir.net/FLI/DocumentForComposition178426. Computable resource at: https://fevir.net/FLI/DocumentForComposition178426.", "style": {"coding": [{"code": "comppub", "system": "http://hl7.org/fhir/citation-summary-style", "display": "Computable Publishing"}]}}], "contained": [{"id": "contributor0", "resourceType": "Practitioner"}, {"id": "contributor1", "resourceType": "Practitioner"}, {"id": "contributor2", "resourceType": "Practitioner"}], "copyright": "https://creativecommons.org/licenses/by-nc-sa/4.0/", "extension": [{"url": "http://hl7.org/fhir/uv/ebm/StructureDefinition/artifact-publication-status", "valueCodeableConcept": {"coding": [{"code": "active", "system": "http://terminology.hl7.org/CodeSystem/cited-artifact-status-type", "display": "Active"}]}}], "publisher": "Computable Publishing LLC", "identifier": [{"type": {"text": "FEvIR Object Identifier", "coding": [{"system": "http://terminology.hl7.org/CodeSystem/v2-0203", "code": "ACSN", "display": "Accession ID"}]}, "value": "247416", "system": "https://fevir.net/FOI", "assigner": {"display": "Computable Publishing LLC"}}], "useContext": [{"code": {"code": "fevir-platform-use", "system": "http://terminology.hl7.org/CodeSystem/citation-classification-type", "display": "FEvIR Platform Use"}, "valueCodeableConcept": {"coding": [{"code": "fhir-resource", "system": "http://terminology.hl7.org/CodeSystem/citation-artifact-classifier", "display": "FHIR Resource"}]}}], "description": "A citation of a Resource on the FEvIR Platform", "resourceType": "Citation", "citedArtifact": {"title": [{"text": "ComparativeEvidenceReport: Association of Bariatric Surgery vs Medical Obesity Treatment With Long-term Medical Complications and Obesity-Related Comorbidities (2018 Norwegian Cohort)", "type": [{"coding": [{"code": "human-use", "system": "http://terminology.hl7.org/CodeSystem/title-type", "display": "Human use"}]}]}], "identifier": [{"type": {"text": "FEvIR Object Identifier", "coding": [{"system": "http://terminology.hl7.org/CodeSystem/v2-0203", "code": "ACSN", "display": "Accession ID"}]}, "value": "178426", "system": "https://fevir.net", "assigner": {"display": "Computable Publishing LLC"}}], "webLocation": [{"url": "https://fevir.net/FLI/DocumentForComposition178426", "classifier": [{"coding": [{"code": "computable-resource", "system": "http://terminology.hl7.org/CodeSystem/artifact-url-classifier", "display": "Computable resource"}]}, {"coding": [{"code": "Bundle", "system": "http://hl7.org/fhir/fhir-types", "display": "Bundle"}]}]}, {"url": "https://fevir.net/resources/Composition/178426", "classifier": [{"coding": [{"code": "computable-resource", "system": "http://terminology.hl7.org/CodeSystem/artifact-url-classifier", "display": "Computable resource"}]}, {"coding": [{"code": "Composition", "system": "http://hl7.org/fhir/fhir-types", "display": "Composition"}]}]}], "classification": [{"type": {"coding": [{"code": "knowledge-artifact-type", "system": "http://terminology.hl7.org/CodeSystem/cited-artifact-classification-type", "display": "Knowledge Artifact Type"}]}, "classifier": [{"coding": [{"code": "classified-as-database-entry", "system": "https://fevir.net/resources/CodeSystem/179423", "display": "Database Entry"}]}, {"coding": [{"code": "fhir-resource", "system": "http://terminology.hl7.org/CodeSystem/citation-artifact-classifier", "display": "FHIR Resource"}]}]}, {"type": {"coding": [{"code": "fhir-resource", "system": "http://terminology.hl7.org/CodeSystem/citation-artifact-classifier", "display": "FHIR Resource"}]}, "classifier": [{"coding": [{"code": "Composition", "system": "http://hl7.org/fhir/fhir-types", "display": "Composition"}]}]}], "contributorship": {"entry": [{"role": {"coding": [{"code": "author", "system": "http://hl7.org/fhir/contributor-role", "display": "Author/Creator"}]}, "contributor": {"type": "Practitioner", "display": "Brian S. Alper", "reference": "#contributor0"}}, {"role": {"coding": [{"code": "author", "system": "http://hl7.org/fhir/contributor-role", "display": "Author/Creator"}]}, "contributor": {"type": "Practitioner", "display": "Khalid Shahin", "reference": "#contributor1"}}, {"role": {"coding": [{"code": "author", "system": "http://hl7.org/fhir/contributor-role", "display": "Author/Creator"}]}, "contributor": {"type": "Practitioner", "display": "Joanne Dehnbostel", "reference": "#contributor2"}}]}, "publicationForm": [{"language": [{"coding": [{"system": "urn:ietf:bcp:47", "code": "[Not specified.]"}]}], "copyright": "https://creativecommons.org/licenses/by-nc-sa/4.0/", "citedMedium": {"coding": [{"code": "internet", "system": "http://terminology.hl7.org/CodeSystem/cited-medium", "display": "Internet"}]}, "publishedIn": {"type": {"coding": [{"code": "D019991", "system": "http://terminology.hl7.org/CodeSystem/published-in-type", "display": "Database"}]}, "title": "Fast Evidence Interoperability Resources (FEvIR) Platform", "publisher": {"display": "Computable Publishing LLC"}, "publisherLocation": "Ipswich, MA, USA"}, "accessionNumber": "178426", "lastRevisionDate": "2024-05-16"}]}}