{"resourceType": "Citation", "meta": {"profile": ["http://hl7.org/fhir/uv/ebm/StructureDefinition/journal-article-citation"], "versionId": "17", "lastUpdated": "2025-10-13T09:55:39.733Z"}, "contained": [{"resourceType": "Practitioner", "id": "contributor0", "name": [{"family": "Gravis", "given": ["Gwenaelle"]}]}, {"resourceType": "Practitioner", "id": "contributor1", "name": [{"family": "Fizazi", "given": ["Karim"]}]}, {"resourceType": "Practitioner", "id": "contributor2", "name": [{"family": "Joly", "given": ["Florence"]}]}, {"resourceType": "Practitioner", "id": "contributor3", "name": [{"family": "Oudard", "given": ["St\u00e9phane"]}]}, {"resourceType": "Practitioner", "id": "contributor4", "name": [{"family": "Priou", "given": ["Franck"]}]}, {"resourceType": "Practitioner", "id": "contributor5", "name": [{"family": "Esterni", "given": ["Benjamin"]}]}, {"resourceType": "Practitioner", "id": "contributor6", "name": [{"family": "Latorzeff", "given": ["Igor"]}]}, {"resourceType": "Practitioner", "id": "contributor7", "name": [{"family": "Delva", "given": ["Remy"]}]}, {"resourceType": "Practitioner", "id": "contributor8", "name": [{"family": "Krakowski", "given": ["Ivan"]}]}, {"resourceType": "Practitioner", "id": "contributor9", "name": [{"family": "Laguerre", "given": ["Brigitte"]}]}, {"resourceType": "Practitioner", "id": "contributor10", "name": [{"family": "Rolland", "given": ["Fr\u00e9deric"]}]}, {"resourceType": "Practitioner", "id": "contributor11", "name": [{"family": "Th\u00e9odore", "given": ["Christine"]}]}, {"resourceType": "Practitioner", "id": "contributor12", "name": [{"family": "Deplanque", "given": ["Gael"]}]}, {"resourceType": "Practitioner", "id": "contributor13", "name": [{"family": "Ferrero", "given": ["Jean Marc"]}]}, {"resourceType": "Practitioner", "id": "contributor14", "name": [{"family": "Pouessel", "given": ["Damien"]}]}, {"resourceType": "Practitioner", "id": "contributor15", "name": [{"family": "Mourey", "given": ["Lo\u00efc"]}]}, {"resourceType": "Practitioner", "id": "contributor16", "name": [{"family": "Beuzeboc", "given": ["Philippe"]}]}, {"resourceType": "Practitioner", "id": "contributor17", "name": [{"family": "Zanetta", "given": ["Sylvie"]}]}, {"resourceType": "Practitioner", "id": "contributor18", "name": [{"family": "Habibian", "given": ["Muriel"]}]}, {"resourceType": "Practitioner", "id": "contributor19", "name": [{"family": "Berdah", "given": ["Jean Fran\u00e7ois"]}]}, {"resourceType": "Practitioner", "id": "contributor20", "name": [{"family": "Dauba", "given": ["Jerome"]}]}, {"resourceType": "Practitioner", "id": "contributor21", "name": [{"family": "Baciuchka", "given": ["Marjorie"]}]}, {"resourceType": "Practitioner", "id": "contributor22", "name": [{"family": "Platini", "given": ["Christian"]}]}, {"resourceType": "Practitioner", "id": "contributor23", "name": [{"family": "Linassier", "given": ["Claude"]}]}, {"resourceType": "Practitioner", "id": "contributor24", "name": [{"family": "Labourey", "given": ["Jean Luc"]}]}, {"resourceType": "Practitioner", "id": "contributor25", "name": [{"family": "Machiels", "given": ["Jean Pascal"]}]}, {"resourceType": "Practitioner", "id": "contributor26", "name": [{"family": "El Kouri", "given": ["Claude"]}]}, {"resourceType": "Practitioner", "id": "contributor27", "name": [{"family": "Ravaud", "given": ["Alain"]}]}, {"resourceType": "Practitioner", "id": "contributor28", "name": [{"family": "Suc", "given": ["Etienne"]}]}, {"resourceType": "Practitioner", "id": "contributor29", "name": [{"family": "Eymard", "given": ["Jean Christophe"]}]}, {"resourceType": "Practitioner", "id": "contributor30", "name": [{"family": "Hasbini", "given": ["Ali"]}]}, {"resourceType": "Practitioner", "id": "contributor31", "name": [{"family": "Bousquet", "given": ["Guilhem"]}]}, {"resourceType": "Practitioner", "id": "contributor32", "name": [{"family": "Soulie", "given": ["Michel"]}]}, {"resourceType": "ArtifactAssessment", "id": "meshHeading0", "artifactReference": {"reference": "#", "type": "Citation"}, "content": [{"type": {"coding": [{"system": "http://terminology.hl7.org/CodeSystem/cited-artifact-classification-type", "code": "mesh-heading", "display": "MeSH heading"}], "text": "components (if present) include qualifier codings"}, "classifier": [{"coding": [{"system": "https://www.nlm.nih.gov/mesh", "code": "D000368", "display": "Aged", "userSelected": false}]}], "freeToShare": true, "component": [{"type": {"text": "qualifier"}, "classifier": [{"text": "is not a major topic"}]}]}, {"type": {"coding": [{"system": "http://terminology.hl7.org/CodeSystem/cited-artifact-classification-type", "code": "mesh-heading", "display": "MeSH heading"}], "text": "components (if present) include qualifier codings"}, "classifier": [{"coding": [{"system": "https://www.nlm.nih.gov/mesh", "code": "D000726", "display": "Androgen Antagonists", "userSelected": false}]}], "freeToShare": true, "component": [{"type": {"text": "qualifier"}, "classifier": [{"text": "is not a major topic"}]}, {"type": {"text": "qualifier"}, "classifier": [{"coding": [{"system": "https://www.nlm.nih.gov/mesh", "code": "Q000008", "display": "administration & dosage"}]}], "component": [{"type": {"text": "is Major topic"}, "classifier": [{"coding": [{"system": "http://ncicb.nci.nih.gov/xml/owl/EVS/Thesaurus.owl", "code": "C49487", "display": "No"}]}]}]}, {"type": {"text": "qualifier"}, "classifier": [{"coding": [{"system": "https://www.nlm.nih.gov/mesh", "code": "Q000627", "display": "therapeutic use"}]}], "component": [{"type": {"text": "is Major topic"}, "classifier": [{"coding": [{"system": "http://ncicb.nci.nih.gov/xml/owl/EVS/Thesaurus.owl", "code": "C49488", "display": "Yes"}]}]}]}]}, {"type": {"coding": [{"system": "http://terminology.hl7.org/CodeSystem/cited-artifact-classification-type", "code": "mesh-heading", "display": "MeSH heading"}], "text": "components (if present) include qualifier codings"}, "classifier": [{"coding": [{"system": "https://www.nlm.nih.gov/mesh", "code": "D000971", "display": "Antineoplastic Combined Chemotherapy Protocols", "userSelected": false}]}], "freeToShare": true, "component": [{"type": {"text": "qualifier"}, "classifier": [{"text": "is not a major topic"}]}, {"type": {"text": "qualifier"}, "classifier": [{"coding": [{"system": "https://www.nlm.nih.gov/mesh", "code": "Q000627", "display": "therapeutic use"}]}], "component": [{"type": {"text": "is Major topic"}, "classifier": [{"coding": [{"system": "http://ncicb.nci.nih.gov/xml/owl/EVS/Thesaurus.owl", "code": "C49488", "display": "Yes"}]}]}]}]}, {"type": {"coding": [{"system": "http://terminology.hl7.org/CodeSystem/cited-artifact-classification-type", "code": "mesh-heading", "display": "MeSH heading"}], "text": "components (if present) include qualifier codings"}, "classifier": [{"coding": [{"system": "https://www.nlm.nih.gov/mesh", "code": "D018572", "display": "Disease-Free Survival", "userSelected": false}]}], "freeToShare": true, "component": [{"type": {"text": "qualifier"}, "classifier": [{"text": "is not a major topic"}]}]}, {"type": {"coding": [{"system": "http://terminology.hl7.org/CodeSystem/cited-artifact-classification-type", "code": "mesh-heading", "display": "MeSH heading"}], "text": "components (if present) include qualifier codings"}, "classifier": [{"coding": [{"system": "https://www.nlm.nih.gov/mesh", "code": "D000077143", "display": "Docetaxel", "userSelected": false}]}], "freeToShare": true, "component": [{"type": {"text": "qualifier"}, "classifier": [{"text": "is not a major topic"}]}]}, {"type": {"coding": [{"system": "http://terminology.hl7.org/CodeSystem/cited-artifact-classification-type", "code": "mesh-heading", "display": "MeSH heading"}], "text": "components (if present) include qualifier codings"}, "classifier": [{"coding": [{"system": "https://www.nlm.nih.gov/mesh", "code": "D006801", "display": "Humans", "userSelected": false}]}], "freeToShare": true, "component": [{"type": {"text": "qualifier"}, "classifier": [{"text": "is not a major topic"}]}]}, {"type": {"coding": [{"system": "http://terminology.hl7.org/CodeSystem/cited-artifact-classification-type", "code": "mesh-heading", "display": "MeSH heading"}], "text": "components (if present) include qualifier codings"}, "classifier": [{"coding": [{"system": "https://www.nlm.nih.gov/mesh", "code": "D008297", "display": "Male", "userSelected": false}]}], "freeToShare": true, "component": [{"type": {"text": "qualifier"}, "classifier": [{"text": "is not a major topic"}]}]}, {"type": {"coding": [{"system": "http://terminology.hl7.org/CodeSystem/cited-artifact-classification-type", "code": "mesh-heading", "display": "MeSH heading"}], "text": "components (if present) include qualifier codings"}, "classifier": [{"coding": [{"system": "https://www.nlm.nih.gov/mesh", "code": "D008875", "display": "Middle Aged", "userSelected": false}]}], "freeToShare": true, "component": [{"type": {"text": "qualifier"}, "classifier": [{"text": "is not a major topic"}]}]}, {"type": {"coding": [{"system": "http://terminology.hl7.org/CodeSystem/cited-artifact-classification-type", "code": "mesh-heading", "display": "MeSH heading"}], "text": "components (if present) include qualifier codings"}, "classifier": [{"coding": [{"system": "https://www.nlm.nih.gov/mesh", "code": "D009919", "display": "Orchiectomy", "userSelected": false}]}], "freeToShare": true, "component": [{"type": {"text": "qualifier"}, "classifier": [{"text": "is not a major topic"}]}]}, {"type": {"coding": [{"system": "http://terminology.hl7.org/CodeSystem/cited-artifact-classification-type", "code": "mesh-heading", "display": "MeSH heading"}], "text": "components (if present) include qualifier codings"}, "classifier": [{"coding": [{"system": "https://www.nlm.nih.gov/mesh", "code": "D011471", "display": "Prostatic Neoplasms", "userSelected": false}]}], "freeToShare": true, "component": [{"type": {"text": "qualifier"}, "classifier": [{"text": "is not a major topic"}]}, {"type": {"text": "qualifier"}, "classifier": [{"coding": [{"system": "https://www.nlm.nih.gov/mesh", "code": "Q000188", "display": "drug therapy"}]}], "component": [{"type": {"text": "is Major topic"}, "classifier": [{"coding": [{"system": "http://ncicb.nci.nih.gov/xml/owl/EVS/Thesaurus.owl", "code": "C49488", "display": "Yes"}]}]}]}, {"type": {"text": "qualifier"}, "classifier": [{"coding": [{"system": "https://www.nlm.nih.gov/mesh", "code": "Q000401", "display": "mortality"}]}], "component": [{"type": {"text": "is Major topic"}, "classifier": [{"coding": [{"system": "http://ncicb.nci.nih.gov/xml/owl/EVS/Thesaurus.owl", "code": "C49487", "display": "No"}]}]}]}]}, {"type": {"coding": [{"system": "http://terminology.hl7.org/CodeSystem/cited-artifact-classification-type", "code": "mesh-heading", "display": "MeSH heading"}], "text": "components (if present) include qualifier codings"}, "classifier": [{"coding": [{"system": "https://www.nlm.nih.gov/mesh", "code": "D043823", "display": "Taxoids", "userSelected": false}]}], "freeToShare": true, "component": [{"type": {"text": "qualifier"}, "classifier": [{"text": "is not a major topic"}]}, {"type": {"text": "qualifier"}, "classifier": [{"coding": [{"system": "https://www.nlm.nih.gov/mesh", "code": "Q000008", "display": "administration & dosage"}]}], "component": [{"type": {"text": "is Major topic"}, "classifier": [{"coding": [{"system": "http://ncicb.nci.nih.gov/xml/owl/EVS/Thesaurus.owl", "code": "C49488", "display": "Yes"}]}]}]}, {"type": {"text": "qualifier"}, "classifier": [{"coding": [{"system": "https://www.nlm.nih.gov/mesh", "code": "Q000627", "display": "therapeutic use"}]}], "component": [{"type": {"text": "is Major topic"}, "classifier": [{"coding": [{"system": "http://ncicb.nci.nih.gov/xml/owl/EVS/Thesaurus.owl", "code": "C49488", "display": "Yes"}]}]}]}]}]}], "useContext": [{"code": {"system": "http://terminology.hl7.org/CodeSystem/citation-classification-type", "code": "fevir-platform-use", "display": "FEvIR Platform Use"}, "valueCodeableConcept": {"coding": [{"system": "http://terminology.hl7.org/CodeSystem/citation-artifact-classifier", "code": "medline-base", "display": "Medline Base", "userSelected": false}]}}], "classification": [{"type": {"coding": [{"system": "http://terminology.hl7.org/CodeSystem/citation-classification-type", "code": "citation-source", "display": "Citation Source"}]}, "classifier": [{"text": "MEDLINE"}]}, {"type": {"coding": [{"system": "http://terminology.hl7.org/CodeSystem/citation-classification-type", "code": "medline-owner", "display": "MEDLINE Citation Owner"}]}, "classifier": [{"coding": [{"system": "https://www.nlm.nih.gov/bsd/licensee/elements_descriptions.html#owner_value", "code": "NLM", "display": "National Library of Medicine, Index Section", "userSelected": false}]}]}], "statusDate": [{"activity": {"coding": [{"system": "http://hl7.org/fhir/citation-status-type", "code": "pubmed-pubstatus-entrez", "display": "PubMed Pubstatus of Entrez"}]}, "period": {"end": "2013-01-12T06:00:00.000Z"}}, {"activity": {"coding": [{"system": "http://hl7.org/fhir/citation-status-type", "code": "pubmed-pubstatus-pubmed", "display": "PubMed Pubstatus of Pubmed"}]}, "period": {"end": "2013-01-12T06:00:00.000Z"}}, {"activity": {"coding": [{"system": "http://hl7.org/fhir/citation-status-type", "code": "pubmed-pubstatus-medline", "display": "PubMed Pubstatus of Medline"}]}, "period": {"end": "2013-03-26T06:00:00.000Z"}}], "citedArtifact": {"identifier": [{"system": "https://pubmed.ncbi.nlm.nih.gov", "value": "23306100"}, {"system": "https://doi.org", "value": "10.1016/S1470-2045(12)70560-0"}, {"type": {"text": "pii", "coding": [{"system": "http://terminology.hl7.org/CodeSystem/v2-0203", "code": "ACSN", "display": "Accession ID"}]}, "value": "S1470-2045(12)70560-0"}], "relatedIdentifier": [{"assigner": {"display": "ClinicalTrials.gov"}, "system": "https://clinicaltrials.gov", "value": "NCT00104715"}], "title": [{"text": "Androgen-deprivation therapy alone or with docetaxel in non-castrate metastatic prostate cancer (GETUG-AFU 15): a randomised, open-label, phase 3 trial.", "language": {"coding": [{"system": "urn:ietf:bcp:47", "code": "en", "display": "English"}]}, "type": [{"coding": [{"system": "http://terminology.hl7.org/CodeSystem/title-type", "code": "primary", "display": "Primary title"}]}]}], "abstract": [{"type": {"coding": [{"system": "http://terminology.hl7.org/CodeSystem/cited-artifact-abstract-type", "code": "primary-human-use", "display": "Primary human use"}]}, "text": "**BACKGROUND:** Early chemotherapy might improve the overall outcomes of patients with metastatic non-castrate (ie, hormone-sensitive) prostate cancer. We investigated the effects of the addition of docetaxel to androgen-deprivation therapy (ADT) for patients with metastatic non-castrate prostate cancer.\n**METHODS:** In this randomised, open-label, phase 3 study, we enrolled patients in 29 centres in France and one in Belgium. Eligible patients were older than 18 years and had histologically confirmed adenocarcinoma of the prostate and radiologically proven metastatic disease; a Karnofsky score of at least 70%; a life expectancy of at least 3 months; and adequate hepatic, haematological, and renal function. They were randomly assigned to receive to ADT (orchiectomy or luteinising hormone-releasing hormone agonists, alone or combined with non-steroidal antiandrogens) alone or in combination with docetaxel (75 mg/m(2) intravenously on the first day of each 21-day cycle; up to nine cycles). Patients were randomised in a 1:1 ratio, with dynamic minimisation to minimise imbalances in previous systemic treatment with ADT, chemotherapy for local disease or isolated rising concentration of serum prostate-specific antigen, and Glass risk groups. Patients, physicians, and data analysts were not masked to treatment allocation. The primary endpoint was overall survival. Efficacy analyses were done by intention to treat. This trial is registered with ClinicalTrials.gov, number NCT00104715.\n**FINDINGS:** Between Oct 18, 2004, and Dec 31, 2008, 192 patients were randomly allocated to receive ADT plus docetaxel and 193 to receive ADT alone. Median follow-up was 50 months (IQR 39-63). Median overall survival was 58\u00b79 months (95% CI 50\u00b78-69\u00b71) in the group given ADT plus docetaxel and 54\u00b72 months (42\u00b72-not reached) in that given ADT alone (hazard ratio 1\u00b701, 95% CI 0\u00b775-1\u00b736). 72 serious adverse events were reported in the group given ADT plus docetaxel, of which the most frequent were neutropenia (40 [21%]), febrile neutropenia (six [3%]), abnormal liver function tests (three [2%]), and neutropenia with infection (two [1%]). Four treatment-related deaths occurred in the ADT plus docetaxel group (two of which were neutropenia-related), after which the data monitoring committee recommended treatment with granulocyte colony-stimulating factor. After this recommendation, no further treatment-related deaths occurred. No serious adverse events were reported in the ADT alone group.\n**INTERPRETATION:** Docetaxel should not be used as part of first-line treatment for patients with non-castrate metastatic prostate cancer.\n**FUNDING:** French Health Ministry and Institut National du Cancer (PHRC), Sanofi-Aventis, AstraZeneca, and Amgen.", "copyright": "Copyright \u00a9 2013 Elsevier Ltd. All rights reserved."}], "relatesTo": [{"type": "comment-in", "classifier": [{"coding": [{"system": "https://www.nlm.nih.gov/mesh", "code": "D016420", "display": "Comment", "userSelected": false}]}], "citation": "Lancet Oncol. 2013 Feb;14(2):104-5. doi: 10.1016/S1470-2045(12)70591-0.", "targetReference": {"identifier": {"system": "https://pubmed.ncbi.nlm.nih.gov", "value": "23306099", "assigner": {"display": "NLM"}}, "reference": "https://pubmed.ncbi.nlm.nih.gov/23306099/"}}, {"type": "comment-in", "classifier": [{"coding": [{"system": "https://www.nlm.nih.gov/mesh", "code": "D016420", "display": "Comment", "userSelected": false}]}], "citation": "Nat Rev Urol. 2013 Mar;10(3):123. doi: 10.1038/nrurol.2013.12.", "targetReference": {"identifier": {"system": "https://pubmed.ncbi.nlm.nih.gov", "value": "23358518", "assigner": {"display": "NLM"}}, "reference": "https://pubmed.ncbi.nlm.nih.gov/23358518/"}}, {"type": "comment-in", "classifier": [{"coding": [{"system": "https://www.nlm.nih.gov/mesh", "code": "D016420", "display": "Comment", "userSelected": false}]}], "citation": "J Urol. 2013 Dec;190(6):2094. doi: 10.1016/j.juro.2013.08.104.", "targetReference": {"identifier": {"system": "https://pubmed.ncbi.nlm.nih.gov", "value": "24209521", "assigner": {"display": "NLM"}}, "reference": "https://pubmed.ncbi.nlm.nih.gov/24209521/"}}, {"type": "comment-in", "classifier": [{"coding": [{"system": "https://www.nlm.nih.gov/mesh", "code": "D016420", "display": "Comment", "userSelected": false}]}], "citation": "Urol Oncol. 2013 Nov;31(8):1845. doi: 10.1016/j.urolonc.2013.08.011.", "targetReference": {"identifier": {"system": "https://pubmed.ncbi.nlm.nih.gov", "value": "24210084", "assigner": {"display": "NLM"}}, "reference": "https://pubmed.ncbi.nlm.nih.gov/24210084/"}}, {"type": "comment-in", "classifier": [{"coding": [{"system": "https://www.nlm.nih.gov/mesh", "code": "D016420", "display": "Comment", "userSelected": false}]}], "citation": "Actas Urol Esp. 2017 Jul - Aug;41(6):347-351. doi: 10.1016/j.acuro.2016.11.008.", "targetReference": {"identifier": {"system": "https://pubmed.ncbi.nlm.nih.gov", "value": "28214037", "assigner": {"display": "NLM"}}, "reference": "https://pubmed.ncbi.nlm.nih.gov/28214037/"}}], "publicationForm": [{"publishedIn": {"type": {"coding": [{"system": "http://terminology.hl7.org/CodeSystem/published-in-type", "code": "D020492", "display": "Periodical"}]}, "identifier": [{"type": {"coding": [{"system": "https://www.nlm.nih.gov/bsd/licensee/elements_descriptions.html#issn", "code": "Electronic", "display": "Electronic"}], "text": "Electronic ISSN Type"}, "value": "1474-5488", "system": "https://portal.issn.org"}, {"type": {"text": "ISOAbbreviation", "coding": [{"system": "http://terminology.hl7.org/CodeSystem/v2-0203", "code": "XX", "display": "Organization identifier"}]}, "system": "https://www.issn.org/services/online-services/access-to-the-ltwa/", "value": "Lancet Oncol"}, {"type": {"text": "ISSN Linking", "coding": [{"system": "http://terminology.hl7.org/CodeSystem/v2-0203", "code": "XX", "display": "Organization identifier"}]}, "system": "https://www.issn.org/understanding-the-issn/assignment-rules/the-issn-l-for-publications-on-multiple-media/", "value": "1470-2045"}, {"type": {"text": "Medline Title Abbreviation", "coding": [{"system": "http://terminology.hl7.org/CodeSystem/v2-0203", "code": "XX", "display": "Organization identifier"}]}, "system": "https://www.nlm.nih.gov/tsd/cataloging/contructitleabbre.html", "value": "Lancet Oncol"}, {"type": {"text": "NLM Unique ID", "coding": [{"system": "http://terminology.hl7.org/CodeSystem/v2-0203", "code": "XX", "display": "Organization identifier"}]}, "system": "https://locatorplus.gov/cgi-bin/Pwebrecon.cgi?DB=local", "value": "100957246"}], "title": "The Lancet. Oncology", "publisherLocation": "England"}, "citedMedium": {"coding": [{"system": "http://terminology.hl7.org/CodeSystem/cited-medium", "code": "internet", "display": "Internet"}]}, "volume": "14", "issue": "2", "articleDate": "2013-02", "pageString": "149-58"}, {"citedMedium": {"coding": [{"system": "http://terminology.hl7.org/CodeSystem/cited-medium", "code": "internet-without-issue", "display": "Internet without issue"}]}, "articleDate": "2013-01-08"}], "webLocation": [{"classifier": [{"coding": [{"system": "http://terminology.hl7.org/CodeSystem/artifact-url-classifier", "code": "abstract", "display": "Abstract"}]}], "url": "https://pubmed.ncbi.nlm.nih.gov/23306100/"}, {"url": "https://doi.org/10.1016/S1470-2045(12)70560-0", "classifier": [{"coding": [{"system": "http://terminology.hl7.org/CodeSystem/artifact-url-classifier", "code": "doi-based", "display": "DOI Based"}]}]}], "classification": [{"type": {"coding": [{"system": "http://terminology.hl7.org/CodeSystem/cited-artifact-classification-type", "code": "publishing-model", "display": "Publishing Model", "userSelected": false}]}, "classifier": [{"coding": [{"system": "http://terminology.hl7.org/CodeSystem/citation-artifact-classifier", "code": "Print-Electronic", "display": "Print Electronic", "userSelected": false}]}]}, {"type": {"coding": [{"system": "http://terminology.hl7.org/CodeSystem/cited-artifact-classification-type", "code": "chemical", "display": "Chemical", "userSelected": false}]}, "classifier": [{"coding": [{"system": "https://www.nlm.nih.gov/mesh", "code": "D000726", "display": "Androgen Antagonists", "userSelected": false}]}, {"coding": [{"system": "https://www.nlm.nih.gov/mesh", "code": "D043823", "display": "Taxoids", "userSelected": false}]}, {"coding": [{"system": "https://www.cas.org/support/documentation/chemical-substances", "code": "15H5577CQD", "userSelected": false}, {"system": "https://www.nlm.nih.gov/mesh", "code": "D000077143", "display": "Docetaxel", "userSelected": false}]}]}, {"type": {"coding": [{"system": "http://terminology.hl7.org/CodeSystem/cited-artifact-classification-type", "code": "mesh-heading", "display": "MeSH heading"}]}, "artifactAssessment": [{"reference": "#meshHeading0", "type": "ArtifactAssessment"}]}, {"type": {"coding": [{"system": "http://terminology.hl7.org/CodeSystem/cited-artifact-classification-type", "code": "publication-type", "display": "Publication type"}]}, "classifier": [{"coding": [{"system": "https://www.nlm.nih.gov/mesh", "code": "D017428", "display": "Clinical Trial, Phase III", "userSelected": false}]}, {"coding": [{"system": "https://www.nlm.nih.gov/mesh", "code": "D016428", "display": "Journal Article", "userSelected": false}]}, {"coding": [{"system": "https://www.nlm.nih.gov/mesh", "code": "D016449", "display": "Randomized Controlled Trial", "userSelected": false}]}, {"coding": [{"system": "https://www.nlm.nih.gov/mesh", "code": "D013485", "display": "Research Support, Non-U.S. Gov't", "userSelected": false}]}]}, {"type": {"coding": [{"system": "http://terminology.hl7.org/CodeSystem/cited-artifact-classification-type", "code": "knowledge-artifact-type", "display": "Knowledge Artifact Type", "userSelected": false}]}, "classifier": [{"coding": [{"system": "http://terminology.hl7.org/CodeSystem/citation-artifact-classifier", "code": "D016428", "display": "Journal Article", "userSelected": false}]}], "artifactAssessment": [{"display": "Classifier added by Computable Publishing LLC"}]}, {"type": {"coding": [{"system": "http://terminology.hl7.org/CodeSystem/cited-artifact-classification-type", "code": "citation-subset", "display": "Citation subset", "userSelected": false}]}, "classifier": [{"coding": [{"system": "https://www.nlm.nih.gov/bsd/licensee/elements_descriptions.html#citationsubset", "code": "IM", "display": "IM", "userSelected": false}]}]}], "contributorship": {"entry": [{"contributor": {"reference": "#contributor0", "type": "Practitioner", "display": "Gravis G"}, "forenameInitials": "G", "affiliation": [{"display": "Medical Oncology and Biostatistics, Institut Paoli-Calmettes, Marseille, France. gravisg@ipc.unicancer.fr"}]}, {"contributor": {"reference": "#contributor1", "type": "Practitioner", "display": "Fizazi K"}, "forenameInitials": "K"}, {"contributor": {"reference": "#contributor2", "type": "Practitioner", "display": "Joly F"}, "forenameInitials": "F"}, {"contributor": {"reference": "#contributor3", "type": "Practitioner", "display": "Oudard S"}, "forenameInitials": "S"}, {"contributor": {"reference": "#contributor4", "type": "Practitioner", "display": "Priou F"}, "forenameInitials": "F"}, {"contributor": {"reference": "#contributor5", "type": "Practitioner", "display": "Esterni B"}, "forenameInitials": "B"}, {"contributor": {"reference": "#contributor6", "type": "Practitioner", "display": "Latorzeff I"}, "forenameInitials": "I"}, {"contributor": {"reference": "#contributor7", "type": "Practitioner", "display": "Delva R"}, "forenameInitials": "R"}, {"contributor": {"reference": "#contributor8", "type": "Practitioner", "display": "Krakowski I"}, "forenameInitials": "I"}, {"contributor": {"reference": "#contributor9", "type": "Practitioner", "display": "Laguerre B"}, "forenameInitials": "B"}, {"contributor": {"reference": "#contributor10", "type": "Practitioner", "display": "Rolland F"}, "forenameInitials": "F"}, {"contributor": {"reference": "#contributor11", "type": "Practitioner", "display": "Th\u00e9odore C"}, "forenameInitials": "C"}, {"contributor": {"reference": "#contributor12", "type": "Practitioner", "display": "Deplanque G"}, "forenameInitials": "G"}, {"contributor": {"reference": "#contributor13", "type": "Practitioner", "display": "Ferrero JM"}, "forenameInitials": "JM"}, {"contributor": {"reference": "#contributor14", "type": "Practitioner", "display": "Pouessel D"}, "forenameInitials": "D"}, {"contributor": {"reference": "#contributor15", "type": "Practitioner", "display": "Mourey L"}, "forenameInitials": "L"}, {"contributor": {"reference": "#contributor16", "type": "Practitioner", "display": "Beuzeboc P"}, "forenameInitials": "P"}, {"contributor": {"reference": "#contributor17", "type": "Practitioner", "display": "Zanetta S"}, "forenameInitials": "S"}, {"contributor": {"reference": "#contributor18", "type": "Practitioner", "display": "Habibian M"}, "forenameInitials": "M"}, {"contributor": {"reference": "#contributor19", "type": "Practitioner", "display": "Berdah JF"}, "forenameInitials": "JF"}, {"contributor": {"reference": "#contributor20", "type": "Practitioner", "display": "Dauba J"}, "forenameInitials": "J"}, {"contributor": {"reference": "#contributor21", "type": "Practitioner", "display": "Baciuchka M"}, "forenameInitials": "M"}, {"contributor": {"reference": "#contributor22", "type": "Practitioner", "display": "Platini C"}, "forenameInitials": "C"}, {"contributor": {"reference": "#contributor23", "type": "Practitioner", "display": "Linassier C"}, "forenameInitials": "C"}, {"contributor": {"reference": "#contributor24", "type": "Practitioner", "display": "Labourey JL"}, "forenameInitials": "JL"}, {"contributor": {"reference": "#contributor25", "type": "Practitioner", "display": "Machiels JP"}, "forenameInitials": "JP"}, {"contributor": {"reference": "#contributor26", "type": "Practitioner", "display": "El Kouri C"}, "forenameInitials": "C"}, {"contributor": {"reference": "#contributor27", "type": "Practitioner", "display": "Ravaud A"}, "forenameInitials": "A"}, {"contributor": {"reference": "#contributor28", "type": "Practitioner", "display": "Suc E"}, "forenameInitials": "E"}, {"contributor": {"reference": "#contributor29", "type": "Practitioner", "display": "Eymard JC"}, "forenameInitials": "JC"}, {"contributor": {"reference": "#contributor30", "type": "Practitioner", "display": "Hasbini A"}, "forenameInitials": "A"}, {"contributor": {"reference": "#contributor31", "type": "Practitioner", "display": "Bousquet G"}, "forenameInitials": "G"}, {"contributor": {"reference": "#contributor32", "type": "Practitioner", "display": "Soulie M"}, "forenameInitials": "M"}], "complete": true}}, "approvalDate": "2013-03-25", "lastReviewDate": "2022-12-08", "currentState": [{"coding": [{"system": "http://hl7.org/fhir/citation-status-type", "code": "medline-medline", "display": "Medline Citation Status of Medline"}]}, {"coding": [{"system": "http://hl7.org/fhir/citation-status-type", "code": "pubmed-publication-status-ppublish", "display": "PubMed PublicationStatus of ppublish"}]}], "title": "23306100 Androgen-deprivation therapy alone or with docetaxel in non-castrate metastatic prostate cancer (GETUG-AFU 15): a randomised, open-label, phase 3 trial.", "identifier": [{"type": {"text": "FEvIR Object Identifier", "coding": [{"system": "http://terminology.hl7.org/CodeSystem/v2-0203", "code": "ACSN", "display": "Accession ID"}]}, "system": "https://fevir.net/FOI", "value": "179615", "assigner": {"display": "Computable Publishing LLC"}}, {"system": "https://pubmed.ncbi.nlm.nih.gov", "value": "23306100"}], "status": "active", "url": "https://fevir.net/resources/Citation/179615", "id": "179615", "publisher": "Computable Publishing LLC", "copyright": "https://creativecommons.org/licenses/by-nc-sa/4.0/", "contact": [{"telecom": [{"system": "email", "value": "support@computablepublishing.com"}]}], "author": [{"name": "Computable Publishing\u00ae: MEDLINE-to-FEvIR Converter"}], "extension": [{"url": "http://hl7.org/fhir/uv/ebm/StructureDefinition/artifact-publication-status", "valueCodeableConcept": {"coding": [{"system": "http://terminology.hl7.org/CodeSystem/cited-artifact-status-type", "code": "active", "display": "Active"}]}}], "description": "This Citation Resource is referenced in an example for the EBMonFHIR Implementation Guide."}