{"id": "104116", "url": "https://fevir.net/resources/Citation/104116", "date": "2022-09-06T14:07:55.073Z", "meta": {"profile": ["http://hl7.org/fhir/uv/ebm/StructureDefinition/journal-article-citation"], "versionId": "32", "lastUpdated": "2025-10-13T09:55:39.733Z"}, "title": "JournalArticleCitation: Association of Bariatric Surgery with Complications and Comorbidities JAMA 2018 Norwegian Cohort", "author": [{"name": "Brian S. Alper"}, {"name": "Computable Publishing\u00ae: MEDLINE-to-FEvIR Converter"}, {"name": "Joanne Dehnbostel"}], "status": "active", "contact": [{"telecom": [{"value": "support@computablepublishing.com", "system": "email"}]}], "summary": [{"text": "Association of Bariatric Surgery vs Medical Obesity Treatment With Long-term Medical Complications and Obesity-Related Comorbidities [Journal Article]. Contributors: Jakobsen GS, Sm\u00e5stuen MC, Sandbu R, Nordstrand N, Hofs\u00f8 D, Lindberg M, Hertel JK, Hjelmes\u00e6th J. In: JAMA, PMID 29340680. Published January 16, 2018. Available at: https://pubmed.ncbi.nlm.nih.gov/29340680/.", "style": {"coding": [{"code": "comppub", "system": "http://hl7.org/fhir/citation-summary-style", "display": "Computable Publishing"}]}}], "contained": [{"id": "contributor0", "name": [{"given": ["Gunn Signe"], "family": "Jakobsen"}], "resourceType": "Practitioner"}, {"id": "contributor1", "name": [{"given": ["Milada Cvancarova"], "family": "Sm\u00e5stuen"}], "resourceType": "Practitioner"}, {"id": "contributor2", "name": [{"given": ["Rune"], "family": "Sandbu"}], "resourceType": "Practitioner"}, {"id": "contributor3", "name": [{"given": ["Njord"], "family": "Nordstrand"}], "resourceType": "Practitioner"}, {"id": "contributor4", "name": [{"given": ["Dag"], "family": "Hofs\u00f8"}], "resourceType": "Practitioner"}, {"id": "contributor5", "name": [{"given": ["Morten"], "family": "Lindberg"}], "resourceType": "Practitioner"}, {"id": "contributor6", "name": [{"given": ["Jens Kristoffer"], "family": "Hertel"}], "resourceType": "Practitioner"}, {"id": "contributor7", "name": [{"given": ["J\u00f8ran"], "family": "Hjelmes\u00e6th"}], "resourceType": "Practitioner"}, {"id": "meshHeading0", "content": [{"type": {"text": "components (if present) include qualifier codings", "coding": [{"code": "mesh-heading", "system": "http://terminology.hl7.org/CodeSystem/cited-artifact-classification-type", "display": "MeSH heading"}]}, "component": [{"type": {"text": "qualifier"}, "classifier": [{"text": "is not a major topic"}]}], "classifier": [{"coding": [{"code": "D000328", "system": "https://www.nlm.nih.gov/mesh", "display": "Adult", "userSelected": false}]}], "freeToShare": true}, {"type": {"text": "components (if present) include qualifier codings", "coding": [{"code": "mesh-heading", "system": "http://terminology.hl7.org/CodeSystem/cited-artifact-classification-type", "display": "MeSH heading"}]}, "component": [{"type": {"text": "qualifier"}, "classifier": [{"text": "is Major topic"}]}, {"type": {"text": "qualifier"}, "component": [{"type": {"text": "is Major topic"}, "classifier": [{"coding": [{"code": "C49487", "system": "http://ncicb.nci.nih.gov/xml/owl/EVS/Thesaurus.owl", "display": "No"}]}]}], "classifier": [{"coding": [{"code": "Q000009", "system": "https://www.nlm.nih.gov/mesh", "display": "adverse effects"}]}]}], "classifier": [{"coding": [{"code": "D050110", "system": "https://www.nlm.nih.gov/mesh", "display": "Bariatric Surgery", "userSelected": false}]}], "freeToShare": true}, {"type": {"text": "components (if present) include qualifier codings", "coding": [{"code": "mesh-heading", "system": "http://terminology.hl7.org/CodeSystem/cited-artifact-classification-type", "display": "MeSH heading"}]}, "component": [{"type": {"text": "qualifier"}, "classifier": [{"text": "is not a major topic"}]}], "classifier": [{"coding": [{"code": "D015992", "system": "https://www.nlm.nih.gov/mesh", "display": "Body Mass Index", "userSelected": false}]}], "freeToShare": true}, {"type": {"text": "components (if present) include qualifier codings", "coding": [{"code": "mesh-heading", "system": "http://terminology.hl7.org/CodeSystem/cited-artifact-classification-type", "display": "MeSH heading"}]}, "component": [{"type": {"text": "qualifier"}, "classifier": [{"text": "is not a major topic"}]}], "classifier": [{"coding": [{"code": "D015331", "system": "https://www.nlm.nih.gov/mesh", "display": "Cohort Studies", "userSelected": false}]}], "freeToShare": true}, {"type": {"text": "components (if present) include qualifier codings", "coding": [{"code": "mesh-heading", "system": "http://terminology.hl7.org/CodeSystem/cited-artifact-classification-type", "display": "MeSH heading"}]}, "component": [{"type": {"text": "qualifier"}, "classifier": [{"text": "is not a major topic"}]}], "classifier": [{"coding": [{"code": "D015897", "system": "https://www.nlm.nih.gov/mesh", "display": "Comorbidity", "userSelected": false}]}], "freeToShare": true}, {"type": {"text": "components (if present) include qualifier codings", "coding": [{"code": "mesh-heading", "system": "http://terminology.hl7.org/CodeSystem/cited-artifact-classification-type", "display": "MeSH heading"}]}, "component": [{"type": {"text": "qualifier"}, "classifier": [{"text": "is not a major topic"}]}, {"type": {"text": "qualifier"}, "component": [{"type": {"text": "is Major topic"}, "classifier": [{"coding": [{"code": "C49487", "system": "http://ncicb.nci.nih.gov/xml/owl/EVS/Thesaurus.owl", "display": "No"}]}]}], "classifier": [{"coding": [{"code": "Q000150", "system": "https://www.nlm.nih.gov/mesh", "display": "complications"}]}]}], "classifier": [{"coding": [{"code": "D003863", "system": "https://www.nlm.nih.gov/mesh", "display": "Depression", "userSelected": false}]}], "freeToShare": true}, {"type": {"text": "components (if present) include qualifier codings", "coding": [{"code": "mesh-heading", "system": "http://terminology.hl7.org/CodeSystem/cited-artifact-classification-type", "display": "MeSH heading"}]}, "component": [{"type": {"text": "qualifier"}, "classifier": [{"text": "is not a major topic"}]}, {"type": {"text": "qualifier"}, "component": [{"type": {"text": "is Major topic"}, "classifier": [{"coding": [{"code": "C49487", "system": "http://ncicb.nci.nih.gov/xml/owl/EVS/Thesaurus.owl", "display": "No"}]}]}], "classifier": [{"coding": [{"code": "Q000150", "system": "https://www.nlm.nih.gov/mesh", "display": "complications"}]}]}], "classifier": [{"coding": [{"code": "D003924", "system": "https://www.nlm.nih.gov/mesh", "display": "Diabetes Mellitus, Type 2", "userSelected": false}]}], "freeToShare": true}, {"type": {"text": "components (if present) include qualifier codings", "coding": [{"code": "mesh-heading", "system": "http://terminology.hl7.org/CodeSystem/cited-artifact-classification-type", "display": "MeSH heading"}]}, "component": [{"type": {"text": "qualifier"}, "classifier": [{"text": "is not a major topic"}]}], "classifier": [{"coding": [{"code": "D005260", "system": "https://www.nlm.nih.gov/mesh", "display": "Female", "userSelected": false}]}], "freeToShare": true}, {"type": {"text": "components (if present) include qualifier codings", "coding": [{"code": "mesh-heading", "system": "http://terminology.hl7.org/CodeSystem/cited-artifact-classification-type", "display": "MeSH heading"}]}, "component": [{"type": {"text": "qualifier"}, "classifier": [{"text": "is not a major topic"}]}, {"type": {"text": "qualifier"}, "component": [{"type": {"text": "is Major topic"}, "classifier": [{"coding": [{"code": "C49487", "system": "http://ncicb.nci.nih.gov/xml/owl/EVS/Thesaurus.owl", "display": "No"}]}]}], "classifier": [{"coding": [{"code": "Q000097", "system": "https://www.nlm.nih.gov/mesh", "display": "blood"}]}]}], "classifier": [{"coding": [{"code": "D005293", "system": "https://www.nlm.nih.gov/mesh", "display": "Ferritins", "userSelected": false}]}], "freeToShare": true}, {"type": {"text": "components (if present) include qualifier codings", "coding": [{"code": "mesh-heading", "system": "http://terminology.hl7.org/CodeSystem/cited-artifact-classification-type", "display": "MeSH heading"}]}, "component": [{"type": {"text": "qualifier"}, "classifier": [{"text": "is not a major topic"}]}], "classifier": [{"coding": [{"code": "D006801", "system": "https://www.nlm.nih.gov/mesh", "display": "Humans", "userSelected": false}]}], "freeToShare": true}, {"type": {"text": "components (if present) include qualifier codings", "coding": [{"code": "mesh-heading", "system": "http://terminology.hl7.org/CodeSystem/cited-artifact-classification-type", "display": "MeSH heading"}]}, "component": [{"type": {"text": "qualifier"}, "classifier": [{"text": "is not a major topic"}]}, {"type": {"text": "qualifier"}, "component": [{"type": {"text": "is Major topic"}, "classifier": [{"coding": [{"code": "C49487", "system": "http://ncicb.nci.nih.gov/xml/owl/EVS/Thesaurus.owl", "display": "No"}]}]}], "classifier": [{"coding": [{"code": "Q000150", "system": "https://www.nlm.nih.gov/mesh", "display": "complications"}]}]}], "classifier": [{"coding": [{"code": "D006973", "system": "https://www.nlm.nih.gov/mesh", "display": "Hypertension", "userSelected": false}]}], "freeToShare": true}, {"type": {"text": "components (if present) include qualifier codings", "coding": [{"code": "mesh-heading", "system": "http://terminology.hl7.org/CodeSystem/cited-artifact-classification-type", "display": "MeSH heading"}]}, "component": [{"type": {"text": "qualifier"}, "classifier": [{"text": "is not a major topic"}]}], "classifier": [{"coding": [{"code": "D008297", "system": "https://www.nlm.nih.gov/mesh", "display": "Male", "userSelected": false}]}], "freeToShare": true}, {"type": {"text": "components (if present) include qualifier codings", "coding": [{"code": "mesh-heading", "system": "http://terminology.hl7.org/CodeSystem/cited-artifact-classification-type", "display": "MeSH heading"}]}, "component": [{"type": {"text": "qualifier"}, "classifier": [{"text": "is not a major topic"}]}], "classifier": [{"coding": [{"code": "D008875", "system": "https://www.nlm.nih.gov/mesh", "display": "Middle Aged", "userSelected": false}]}], "freeToShare": true}, {"type": {"text": "components (if present) include qualifier codings", "coding": [{"code": "mesh-heading", "system": "http://terminology.hl7.org/CodeSystem/cited-artifact-classification-type", "display": "MeSH heading"}]}, "component": [{"type": {"text": "qualifier"}, "classifier": [{"text": "is not a major topic"}]}, {"type": {"text": "qualifier"}, "component": [{"type": {"text": "is Major topic"}, "classifier": [{"coding": [{"code": "C49488", "system": "http://ncicb.nci.nih.gov/xml/owl/EVS/Thesaurus.owl", "display": "Yes"}]}]}], "classifier": [{"coding": [{"code": "Q000150", "system": "https://www.nlm.nih.gov/mesh", "display": "complications"}]}]}, {"type": {"text": "qualifier"}, "component": [{"type": {"text": "is Major topic"}, "classifier": [{"coding": [{"code": "C49487", "system": "http://ncicb.nci.nih.gov/xml/owl/EVS/Thesaurus.owl", "display": "No"}]}]}], "classifier": [{"coding": [{"code": "Q000188", "system": "https://www.nlm.nih.gov/mesh", "display": "drug therapy"}]}]}, {"type": {"text": "qualifier"}, "component": [{"type": {"text": "is Major topic"}, "classifier": [{"coding": [{"code": "C49487", "system": "http://ncicb.nci.nih.gov/xml/owl/EVS/Thesaurus.owl", "display": "No"}]}]}], "classifier": [{"coding": [{"code": "Q000601", "system": "https://www.nlm.nih.gov/mesh", "display": "surgery"}]}]}], "classifier": [{"coding": [{"code": "D009767", "system": "https://www.nlm.nih.gov/mesh", "display": "Obesity, Morbid", "userSelected": false}]}], "freeToShare": true}, {"type": {"text": "components (if present) include qualifier codings", "coding": [{"code": "mesh-heading", "system": "http://terminology.hl7.org/CodeSystem/cited-artifact-classification-type", "display": "MeSH heading"}]}, "component": [{"type": {"text": "qualifier"}, "classifier": [{"text": "is not a major topic"}]}], "classifier": [{"coding": [{"code": "D012074", "system": "https://www.nlm.nih.gov/mesh", "display": "Remission Induction", "userSelected": false}]}], "freeToShare": true}, {"type": {"text": "components (if present) include qualifier codings", "coding": [{"code": "mesh-heading", "system": "http://terminology.hl7.org/CodeSystem/cited-artifact-classification-type", "display": "MeSH heading"}]}, "component": [{"type": {"text": "qualifier"}, "classifier": [{"text": "is not a major topic"}]}], "classifier": [{"coding": [{"code": "D016896", "system": "https://www.nlm.nih.gov/mesh", "display": "Treatment Outcome", "userSelected": false}]}], "freeToShare": true}], "resourceType": "ArtifactAssessment", "artifactReference": {"type": "Citation", "reference": "#"}}], "copyright": "https://creativecommons.org/licenses/by-nc-sa/4.0/", "extension": [{"url": "http://hl7.org/fhir/uv/ebm/StructureDefinition/artifact-publication-status", "valueCodeableConcept": {"coding": [{"code": "active", "system": "http://terminology.hl7.org/CodeSystem/cited-artifact-status-type", "display": "Active"}]}}], "publisher": "Computable Publishing LLC", "identifier": [{"type": {"text": "FEvIR Object Identifier", "coding": [{"system": "http://terminology.hl7.org/CodeSystem/v2-0203", "code": "ACSN", "display": "Accession ID"}]}, "value": "104116", "system": "https://fevir.net/FOI", "assigner": {"display": "Computable Publishing LLC"}}, {"value": "29340680", "system": "https://pubmed.ncbi.nlm.nih.gov", "assigner": {"display": "NLM"}}], "statusDate": [{"period": {"end": "2018-01-18T06:00:00.000Z"}, "activity": {"coding": [{"code": "pubmed-pubstatus-entrez", "system": "http://hl7.org/fhir/citation-status-type", "display": "PubMed Pubstatus of Entrez"}]}}, {"period": {"end": "2018-01-18T06:00:00.000Z"}, "activity": {"coding": [{"code": "pubmed-pubstatus-pubmed", "system": "http://hl7.org/fhir/citation-status-type", "display": "PubMed Pubstatus of PubMed"}]}}, {"period": {"end": "2018-01-27T06:00:00.000Z"}, "activity": {"coding": [{"code": "pubmed-pubstatus-medline", "system": "http://hl7.org/fhir/citation-status-type", "display": "PubMed Pubstatus of Medline"}]}}], "useContext": [{"code": {"code": "fevir-platform-use", "system": "http://terminology.hl7.org/CodeSystem/citation-classification-type", "display": "FEvIR Platform Use"}, "valueCodeableConcept": {"coding": [{"code": "project-specific", "system": "http://terminology.hl7.org/CodeSystem/citation-artifact-classifier", "display": "Project Specific"}]}}], "approvalDate": "2018-01-26", "currentState": [{"coding": [{"code": "medline-medline", "system": "http://hl7.org/fhir/citation-status-type", "display": "Medline Citation Status of MEDLINE"}]}, {"coding": [{"code": "pubmed-publication-status-ppublish", "system": "http://hl7.org/fhir/citation-status-type", "display": "PubMed PublicationStatus of ppublish"}]}], "resourceType": "Citation", "citedArtifact": {"title": [{"text": "Association of Bariatric Surgery vs Medical Obesity Treatment With Long-term Medical Complications and Obesity-Related Comorbidities.", "type": [{"coding": [{"code": "primary", "system": "http://terminology.hl7.org/CodeSystem/title-type", "display": "Primary title"}]}], "language": {"coding": [{"system": "urn:ietf:bcp:47", "code": "en", "display": "English"}]}}], "abstract": [{"text": "**Importance:** The association of bariatric surgery and specialized medical obesity treatment with beneficial and detrimental outcomes remains uncertain.\n**Objective:** To compare changes in obesity-related comorbidities in patients with severe obesity (body mass index \u226540 or \u226535 and at least 1 comorbidity) undergoing bariatric surgery or specialized medical treatment.\n**Design, Setting, and Participants:** Cohort study with baseline data of exposures from November 2005 through July 2010 and follow-up data from 2006 until death or through December 2015 at a tertiary care outpatient center, Vestfold Hospital Trust, Norway. Consecutive treatment-seeking adult patients (n\u2009=\u20092109) with severe obesity assessed (221 patients excluded and 1888 patients included).\n**Exposures:** Bariatric surgery (n\u2009=\u2009932, 92% gastric bypass) or specialized medical treatment (n\u2009=\u2009956) including individual or group-based lifestyle intervention programs.\n**Main Outcomes and Measures:** Primary outcomes included remission and new onset of hypertension based on drugs dispensed according to the Norwegian Prescription Database. Prespecified secondary outcomes included changes in comorbidities. Adverse events included complications retrieved from the Norwegian Patient Registry and a local laboratory database.\n**Results:** Among 1888 patients included in the study, the mean (SD) age was 43.5 (12.3) years (1249 women [66%]; mean [SD] baseline BMI, 44.2 [6.1]; 100% completed follow-up at a median of 6.5 years [range, 0.2-10.1]). Surgically treated patients had a greater likelihood of remission and lesser likelihood for new onset of hypertension (remission: absolute risk [AR], 31.9% vs 12.4%); risk difference [RD], 19.5% [95% CI, 15.8%-23.2%], relative risk [RR], 2.1 [95% CI, 2.0-2.2]; new onset: AR, 3.5% vs 12.2%, RD, 8.7% [95% CI, 6.7%-10.7%], RR, 0.4 [95% CI, 0.3-0.5]; greater likelihood of diabetes remission: AR, 57.5% vs 14.8%; RD, 42.7% [95% CI, 35.8%-49.7%], RR, 3.9 [95% CI, 2.8-5.4]; greater risk of new-onset depression: AR, 8.9% vs 6.5%; RD, 2.4% [95% CI, 1.3%-3.5%], RR, 1.5 [95% CI, 1.4-1.7]; and treatment with opioids: AR, 19.4% vs 15.8%, RD, 3.6% [95% CI, 2.3%-4.9%], RR, 1.3 [95% CI, 1.2-1.4]). Surgical patients had a greater risk for undergoing at least 1 additional gastrointestinal surgical procedure (AR, 31.3% vs 15.5%; RD, 15.8% [95% CI, 13.1%-18.5%]; RR, 2.0 [95% CI, 1.7-2.4]). The proportion of patients with low ferritin levels was significantly greater in the surgical group (26% vs 12%, P\u2009&lt;\u2009.001).\n**Conclusions and Relevance:** Among patients with severe obesity followed up for a median of 6.5 years, bariatric surgery compared with medical treatment was associated with a clinically important increased risk for complications, as well as lower risks of obesity-related comorbidities. The risk for complications should be considered in the decision-making process.", "type": {"coding": [{"code": "primary-human-use", "system": "http://terminology.hl7.org/CodeSystem/cited-artifact-abstract-type", "display": "Primary human use"}]}}], "relatesTo": [{"type": "cites", "citation": "J Affect Disord. 2015 Mar 15;174:644-9", "classifier": [{"coding": [{"code": "D016428", "system": "http://hl7.org/fhir/citation-artifact-classifier", "display": "Journal Article"}]}], "targetReference": {"identifier": {"value": "25577158", "system": "https://pubmed.ncbi.nlm.nih.gov", "assigner": {"display": "NLM"}}, "reference": "https://pubmed.ncbi.nlm.nih.gov/25577158/"}}, {"type": "cites", "citation": "N Engl J Med. 2016 Jul 28;375(4):311-22", "classifier": [{"coding": [{"code": "D016428", "system": "http://hl7.org/fhir/citation-artifact-classifier", "display": "Journal Article"}]}], "targetReference": {"identifier": {"value": "27295427", "system": "https://pubmed.ncbi.nlm.nih.gov", "assigner": {"display": "NLM"}}, "reference": "https://pubmed.ncbi.nlm.nih.gov/27295427/"}}, {"type": "cites", "citation": "N Engl J Med. 2017 Jan 19;376(3):254-266", "classifier": [{"coding": [{"code": "D016428", "system": "http://hl7.org/fhir/citation-artifact-classifier", "display": "Journal Article"}]}], "targetReference": {"identifier": {"value": "28099824", "system": "https://pubmed.ncbi.nlm.nih.gov", "assigner": {"display": "NLM"}}, "reference": "https://pubmed.ncbi.nlm.nih.gov/28099824/"}}, {"type": "cites", "citation": "JAMA Surg. 2015 Apr;150(4):352-61", "classifier": [{"coding": [{"code": "D016428", "system": "http://hl7.org/fhir/citation-artifact-classifier", "display": "Journal Article"}]}], "targetReference": {"identifier": {"value": "25650964", "system": "https://pubmed.ncbi.nlm.nih.gov", "assigner": {"display": "NLM"}}, "reference": "https://pubmed.ncbi.nlm.nih.gov/25650964/"}}, {"type": "cites", "citation": "Obesity (Silver Spring). 2015 Jan;23(1):37-45", "classifier": [{"coding": [{"code": "D016428", "system": "http://hl7.org/fhir/citation-artifact-classifier", "display": "Journal Article"}]}], "targetReference": {"identifier": {"value": "25174845", "system": "https://pubmed.ncbi.nlm.nih.gov", "assigner": {"display": "NLM"}}, "reference": "https://pubmed.ncbi.nlm.nih.gov/25174845/"}}, {"type": "cites", "citation": "JAMA. 2016 Jan 12;315(2):150-63", "classifier": [{"coding": [{"code": "D016428", "system": "http://hl7.org/fhir/citation-artifact-classifier", "display": "Journal Article"}]}], "targetReference": {"identifier": {"value": "26757464", "system": "https://pubmed.ncbi.nlm.nih.gov", "assigner": {"display": "NLM"}}, "reference": "https://pubmed.ncbi.nlm.nih.gov/26757464/"}}, {"type": "cites", "citation": "JAMA. 1998 Nov 18;280(19):1690-1", "classifier": [{"coding": [{"code": "D016428", "system": "http://hl7.org/fhir/citation-artifact-classifier", "display": "Journal Article"}]}], "targetReference": {"identifier": {"value": "9832001", "system": "https://pubmed.ncbi.nlm.nih.gov", "assigner": {"display": "NLM"}}, "reference": "https://pubmed.ncbi.nlm.nih.gov/9832001/"}}, {"type": "cites", "citation": "JAMA Surg. 2016 Jun 1;151(6):504-11", "classifier": [{"coding": [{"code": "D016428", "system": "http://hl7.org/fhir/citation-artifact-classifier", "display": "Journal Article"}]}], "targetReference": {"identifier": {"value": "26747510", "system": "https://pubmed.ncbi.nlm.nih.gov", "assigner": {"display": "NLM"}}, "reference": "https://pubmed.ncbi.nlm.nih.gov/26747510/"}}, {"type": "cites", "citation": "BMJ. 2013 Oct 22;347:f5934", "classifier": [{"coding": [{"code": "D016428", "system": "http://hl7.org/fhir/citation-artifact-classifier", "display": "Journal Article"}]}], "targetReference": {"identifier": {"value": "24149519", "system": "https://pubmed.ncbi.nlm.nih.gov", "assigner": {"display": "NLM"}}, "reference": "https://pubmed.ncbi.nlm.nih.gov/24149519/"}}, {"type": "cites", "citation": "Basic Clin Pharmacol Toxicol. 2010 Feb;106(2):86-94", "classifier": [{"coding": [{"code": "D016428", "system": "http://hl7.org/fhir/citation-artifact-classifier", "display": "Journal Article"}]}], "targetReference": {"identifier": {"value": "19961477", "system": "https://pubmed.ncbi.nlm.nih.gov", "assigner": {"display": "NLM"}}, "reference": "https://pubmed.ncbi.nlm.nih.gov/19961477/"}}, {"type": "cites", "citation": "Surg Obes Relat Dis. 2017 Jun;13(6):962-969", "classifier": [{"coding": [{"code": "D016428", "system": "http://hl7.org/fhir/citation-artifact-classifier", "display": "Journal Article"}]}], "targetReference": {"identifier": {"value": "28209533", "system": "https://pubmed.ncbi.nlm.nih.gov", "assigner": {"display": "NLM"}}, "reference": "https://pubmed.ncbi.nlm.nih.gov/28209533/"}}, {"type": "cites", "citation": "Lancet. 2016 Mar 5;387(10022):957-967", "classifier": [{"coding": [{"code": "D016428", "system": "http://hl7.org/fhir/citation-artifact-classifier", "display": "Journal Article"}]}], "targetReference": {"identifier": {"value": "26724178", "system": "https://pubmed.ncbi.nlm.nih.gov", "assigner": {"display": "NLM"}}, "reference": "https://pubmed.ncbi.nlm.nih.gov/26724178/"}}, {"type": "cites", "citation": "Surg Obes Relat Dis. 2017 Oct;13(10 ):1743-1751", "classifier": [{"coding": [{"code": "D016428", "system": "http://hl7.org/fhir/citation-artifact-classifier", "display": "Journal Article"}]}], "targetReference": {"identifier": {"value": "28728833", "system": "https://pubmed.ncbi.nlm.nih.gov", "assigner": {"display": "NLM"}}, "reference": "https://pubmed.ncbi.nlm.nih.gov/28728833/"}}, {"type": "cites", "citation": "JAMA. 2012 Sep 19;308(11):1122-31", "classifier": [{"coding": [{"code": "D016428", "system": "http://hl7.org/fhir/citation-artifact-classifier", "display": "Journal Article"}]}], "targetReference": {"identifier": {"value": "22990271", "system": "https://pubmed.ncbi.nlm.nih.gov", "assigner": {"display": "NLM"}}, "reference": "https://pubmed.ncbi.nlm.nih.gov/22990271/"}}, {"type": "cites", "citation": "Obesity (Silver Spring). 2014 Aug;22(8):1799-806", "classifier": [{"coding": [{"code": "D016428", "system": "http://hl7.org/fhir/citation-artifact-classifier", "display": "Journal Article"}]}], "targetReference": {"identifier": {"value": "24634371", "system": "https://pubmed.ncbi.nlm.nih.gov", "assigner": {"display": "NLM"}}, "reference": "https://pubmed.ncbi.nlm.nih.gov/24634371/"}}, {"type": "cites", "citation": "Surg Obes Relat Dis. 2014 May-Jun;10(3):516-23", "classifier": [{"coding": [{"code": "D016428", "system": "http://hl7.org/fhir/citation-artifact-classifier", "display": "Journal Article"}]}], "targetReference": {"identifier": {"value": "24951069", "system": "https://pubmed.ncbi.nlm.nih.gov", "assigner": {"display": "NLM"}}, "reference": "https://pubmed.ncbi.nlm.nih.gov/24951069/"}}, {"type": "cites", "citation": "Lancet. 2016 Apr 2;387(10026):1397-1404", "classifier": [{"coding": [{"code": "D016428", "system": "http://hl7.org/fhir/citation-artifact-classifier", "display": "Journal Article"}]}], "targetReference": {"identifier": {"value": "26895675", "system": "https://pubmed.ncbi.nlm.nih.gov", "assigner": {"display": "NLM"}}, "reference": "https://pubmed.ncbi.nlm.nih.gov/26895675/"}}, {"type": "cites", "citation": "Obesity (Silver Spring). 2014 Jul;22 Suppl 2:S5-39", "classifier": [{"coding": [{"code": "D016428", "system": "http://hl7.org/fhir/citation-artifact-classifier", "display": "Journal Article"}]}], "targetReference": {"identifier": {"value": "24961825", "system": "https://pubmed.ncbi.nlm.nih.gov", "assigner": {"display": "NLM"}}, "reference": "https://pubmed.ncbi.nlm.nih.gov/24961825/"}}, {"type": "cites", "citation": "Lancet. 2015 Sep 5;386(9997):964-73", "classifier": [{"coding": [{"code": "D016428", "system": "http://hl7.org/fhir/citation-artifact-classifier", "display": "Journal Article"}]}], "targetReference": {"identifier": {"value": "26369473", "system": "https://pubmed.ncbi.nlm.nih.gov", "assigner": {"display": "NLM"}}, "reference": "https://pubmed.ncbi.nlm.nih.gov/26369473/"}}, {"type": "cites", "citation": "JAMA. 2013 Jun 5;309(21):2240-9", "classifier": [{"coding": [{"code": "D016428", "system": "http://hl7.org/fhir/citation-artifact-classifier", "display": "Journal Article"}]}], "targetReference": {"identifier": {"value": "23736733", "system": "https://pubmed.ncbi.nlm.nih.gov", "assigner": {"display": "NLM"}}, "reference": "https://pubmed.ncbi.nlm.nih.gov/23736733/"}}, {"type": "cites", "citation": "Clin Obes. 2017 Jun;7(3):183-190", "classifier": [{"coding": [{"code": "D016428", "system": "http://hl7.org/fhir/citation-artifact-classifier", "display": "Journal Article"}]}], "targetReference": {"identifier": {"value": "28320081", "system": "https://pubmed.ncbi.nlm.nih.gov", "assigner": {"display": "NLM"}}, "reference": "https://pubmed.ncbi.nlm.nih.gov/28320081/"}}, {"type": "cites", "citation": "Surg Obes Relat Dis. 2017 Aug;13(8):1337-1346", "classifier": [{"coding": [{"code": "D016428", "system": "http://hl7.org/fhir/citation-artifact-classifier", "display": "Journal Article"}]}], "targetReference": {"identifier": {"value": "28579202", "system": "https://pubmed.ncbi.nlm.nih.gov", "assigner": {"display": "NLM"}}, "reference": "https://pubmed.ncbi.nlm.nih.gov/28579202/"}}, {"type": "cites", "citation": "JAMA. 2014 Sep 3;312(9):934-42", "classifier": [{"coding": [{"code": "D016428", "system": "http://hl7.org/fhir/citation-artifact-classifier", "display": "Journal Article"}]}], "targetReference": {"identifier": {"value": "25182102", "system": "https://pubmed.ncbi.nlm.nih.gov", "assigner": {"display": "NLM"}}, "reference": "https://pubmed.ncbi.nlm.nih.gov/25182102/"}}, {"type": "cites", "citation": "N Engl J Med. 2015 Nov 26;373(22):2117-28", "classifier": [{"coding": [{"code": "D016428", "system": "http://hl7.org/fhir/citation-artifact-classifier", "display": "Journal Article"}]}], "targetReference": {"identifier": {"value": "26378978", "system": "https://pubmed.ncbi.nlm.nih.gov", "assigner": {"display": "NLM"}}, "reference": "https://pubmed.ncbi.nlm.nih.gov/26378978/"}}, {"type": "cites", "citation": "JAMA. 2016 Sep 20;316(11):1205-1206", "classifier": [{"coding": [{"code": "D016428", "system": "http://hl7.org/fhir/citation-artifact-classifier", "display": "Journal Article"}]}], "targetReference": {"identifier": {"value": "27654606", "system": "https://pubmed.ncbi.nlm.nih.gov", "assigner": {"display": "NLM"}}, "reference": "https://pubmed.ncbi.nlm.nih.gov/27654606/"}}, {"type": "cites", "citation": "Lancet Diabetes Endocrinol. 2014 Dec;2(12):963-8", "classifier": [{"coding": [{"code": "D016428", "system": "http://hl7.org/fhir/citation-artifact-classifier", "display": "Journal Article"}]}], "targetReference": {"identifier": {"value": "25466723", "system": "https://pubmed.ncbi.nlm.nih.gov", "assigner": {"display": "NLM"}}, "reference": "https://pubmed.ncbi.nlm.nih.gov/25466723/"}}, {"type": "cites", "citation": "Cochrane Database Syst Rev. 2013 Jan 31;(1):CD004816", "classifier": [{"coding": [{"code": "D016428", "system": "http://hl7.org/fhir/citation-artifact-classifier", "display": "Journal Article"}]}], "targetReference": {"identifier": {"value": "23440795", "system": "https://pubmed.ncbi.nlm.nih.gov", "assigner": {"display": "NLM"}}, "reference": "https://pubmed.ncbi.nlm.nih.gov/23440795/"}}, {"type": "cites", "citation": "N Engl J Med. 2017 Sep 21;377(12 ):1143-1155", "classifier": [{"coding": [{"code": "D016428", "system": "http://hl7.org/fhir/citation-artifact-classifier", "display": "Journal Article"}]}], "targetReference": {"identifier": {"value": "28930514", "system": "https://pubmed.ncbi.nlm.nih.gov", "assigner": {"display": "NLM"}}, "reference": "https://pubmed.ncbi.nlm.nih.gov/28930514/"}}, {"type": "cites", "citation": "PLoS Med. 2015 Dec 22;12 (12 ):e1001925", "classifier": [{"coding": [{"code": "D016428", "system": "http://hl7.org/fhir/citation-artifact-classifier", "display": "Journal Article"}]}], "targetReference": {"identifier": {"value": "26694640", "system": "https://pubmed.ncbi.nlm.nih.gov", "assigner": {"display": "NLM"}}, "reference": "https://pubmed.ncbi.nlm.nih.gov/26694640/"}}, {"type": "cites", "citation": "N Engl J Med. 2012 Aug 23;367(8):695-704", "classifier": [{"coding": [{"code": "D016428", "system": "http://hl7.org/fhir/citation-artifact-classifier", "display": "Journal Article"}]}], "targetReference": {"identifier": {"value": "22913680", "system": "https://pubmed.ncbi.nlm.nih.gov", "assigner": {"display": "NLM"}}, "reference": "https://pubmed.ncbi.nlm.nih.gov/22913680/"}}, {"type": "cites", "citation": "N Engl J Med. 2017 Feb 16;376(7):641-651", "classifier": [{"coding": [{"code": "D016428", "system": "http://hl7.org/fhir/citation-artifact-classifier", "display": "Journal Article"}]}], "targetReference": {"identifier": {"value": "28199805", "system": "https://pubmed.ncbi.nlm.nih.gov", "assigner": {"display": "NLM"}}, "reference": "https://pubmed.ncbi.nlm.nih.gov/28199805/"}}, {"type": "cites", "citation": "Eur J Endocrinol. 2010 Nov;163(5):735-45", "classifier": [{"coding": [{"code": "D016428", "system": "http://hl7.org/fhir/citation-artifact-classifier", "display": "Journal Article"}]}], "targetReference": {"identifier": {"value": "20798226", "system": "https://pubmed.ncbi.nlm.nih.gov", "assigner": {"display": "NLM"}}, "reference": "https://pubmed.ncbi.nlm.nih.gov/20798226/"}}, {"type": "cites", "citation": "Obesity (Silver Spring). 2014 Jan;22(1):5-13", "classifier": [{"coding": [{"code": "D016428", "system": "http://hl7.org/fhir/citation-artifact-classifier", "display": "Journal Article"}]}], "targetReference": {"identifier": {"value": "24307184", "system": "https://pubmed.ncbi.nlm.nih.gov", "assigner": {"display": "NLM"}}, "reference": "https://pubmed.ncbi.nlm.nih.gov/24307184/"}}, {"type": "cites", "citation": "Obes Surg. 2010 Aug;20(8):1142-8", "classifier": [{"coding": [{"code": "D016428", "system": "http://hl7.org/fhir/citation-artifact-classifier", "display": "Journal Article"}]}], "targetReference": {"identifier": {"value": "20049653", "system": "https://pubmed.ncbi.nlm.nih.gov", "assigner": {"display": "NLM"}}, "reference": "https://pubmed.ncbi.nlm.nih.gov/20049653/"}}, {"type": "cites", "citation": "Obes Surg. 2017 Jun;27(6):1438-1445", "classifier": [{"coding": [{"code": "D016428", "system": "http://hl7.org/fhir/citation-artifact-classifier", "display": "Journal Article"}]}], "targetReference": {"identifier": {"value": "28028658", "system": "https://pubmed.ncbi.nlm.nih.gov", "assigner": {"display": "NLM"}}, "reference": "https://pubmed.ncbi.nlm.nih.gov/28028658/"}}, {"type": "cites", "citation": "BMC Obes. 2016 Dec 7;3:51", "classifier": [{"coding": [{"code": "D016428", "system": "http://hl7.org/fhir/citation-artifact-classifier", "display": "Journal Article"}]}], "targetReference": {"identifier": {"value": "27980795", "system": "https://pubmed.ncbi.nlm.nih.gov", "assigner": {"display": "NLM"}}, "reference": "https://pubmed.ncbi.nlm.nih.gov/27980795/"}}, {"type": "cites", "citation": "Am J Psychiatry. 2007 Feb;164(2):328-34; quiz 374", "classifier": [{"coding": [{"code": "D016428", "system": "http://hl7.org/fhir/citation-artifact-classifier", "display": "Journal Article"}]}], "targetReference": {"identifier": {"value": "17267797", "system": "https://pubmed.ncbi.nlm.nih.gov", "assigner": {"display": "NLM"}}, "reference": "https://pubmed.ncbi.nlm.nih.gov/17267797/"}}, {"type": "comment-in", "citation": "JAMA. 2018 Jan 16;319(3):238-240", "classifier": [{"coding": [{"code": "D016420", "system": "https://www.nlm.nih.gov/mesh", "display": "Comment", "userSelected": false}]}], "targetReference": {"identifier": {"value": "29340660", "system": "https://pubmed.ncbi.nlm.nih.gov", "assigner": {"display": "NLM"}}, "reference": "https://pubmed.ncbi.nlm.nih.gov/29340660/"}}], "identifier": [{"value": "29340680", "system": "https://pubmed.ncbi.nlm.nih.gov", "assigner": {"display": "NLM"}}, {"type": {"text": "pii", "coding": [{"system": "http://terminology.hl7.org/CodeSystem/v2-0203", "code": "ACSN", "display": "Accession ID"}]}, "value": "2669729"}, {"value": "10.1001/jama.2017.21055", "system": "https://doi.org"}, {"value": "PMC5833560", "system": "https://www.ncbi.nlm.nih.gov/pmc/", "assigner": {"display": "NLM"}}], "webLocation": [{"url": "https://pubmed.ncbi.nlm.nih.gov/29340680/", "classifier": [{"coding": [{"code": "abstract", "system": "http://terminology.hl7.org/CodeSystem/artifact-url-classifier", "display": "Abstract"}]}]}, {"url": "https://doi.org/10.1001/jama.2017.21055", "classifier": [{"coding": [{"code": "doi-based", "system": "http://terminology.hl7.org/CodeSystem/artifact-url-classifier", "display": "DOI Based"}]}]}], "classification": [{"type": {"coding": [{"code": "publishing-model", "system": "http://terminology.hl7.org/CodeSystem/cited-artifact-classification-type", "display": "Publishing Model", "userSelected": false}]}, "classifier": [{"coding": [{"code": "Print", "system": "http://terminology.hl7.org/CodeSystem/citation-artifact-classifier", "display": "Print", "userSelected": false}]}]}, {"type": {"coding": [{"code": "chemical", "system": "http://terminology.hl7.org/CodeSystem/cited-artifact-classification-type", "display": "Chemical", "userSelected": false}]}, "classifier": [{"coding": [{"code": "9007-73-2", "system": "https://www.cas.org/support/documentation/chemical-substances", "userSelected": false}, {"code": "D005293", "system": "https://www.nlm.nih.gov/mesh", "display": "Ferritins", "userSelected": false}]}]}, {"type": {"coding": [{"code": "publication-type", "system": "http://terminology.hl7.org/CodeSystem/cited-artifact-classification-type", "display": "Publication type"}]}, "classifier": [{"coding": [{"code": "D003160", "system": "https://www.nlm.nih.gov/mesh", "display": "Comparative Study", "userSelected": false}]}, {"coding": [{"code": "D016428", "system": "https://www.nlm.nih.gov/mesh", "display": "Journal Article", "userSelected": false}]}]}, {"type": {"coding": [{"code": "citation-subset", "system": "http://terminology.hl7.org/CodeSystem/cited-artifact-classification-type", "display": "Citation subset", "userSelected": false}]}, "classifier": [{"coding": [{"code": "IM", "system": "https://www.nlm.nih.gov/bsd/licensee/elements_descriptions.html#citationsubset", "display": "IM", "userSelected": false}]}]}, {"type": {"coding": [{"code": "mesh-heading", "system": "http://terminology.hl7.org/CodeSystem/cited-artifact-classification-type", "display": "MeSH heading"}]}, "artifactAssessment": [{"type": "ArtifactAssessment", "reference": "#meshHeading0"}]}, {"type": {"coding": [{"code": "knowledge-artifact-type", "system": "http://terminology.hl7.org/CodeSystem/cited-artifact-classification-type", "display": "Knowledge Artifact Type", "userSelected": false}]}, "classifier": [{"coding": [{"code": "D016428", "system": "http://terminology.hl7.org/CodeSystem/citation-artifact-classifier", "display": "Journal Article"}]}], "artifactAssessment": [{"display": "Classifier added by Computable Publishing LLC"}]}], "contributorship": {"entry": [{"affiliation": [{"display": "Morbid Obesity Centre, Vestfold Hospital Trust, T\u00f8nsberg, Norway."}], "contributor": {"type": "Practitioner", "display": "Jakobsen GS", "reference": "#contributor0"}, "forenameInitials": "GS"}, {"affiliation": [{"display": "Morbid Obesity Centre, Vestfold Hospital Trust, T\u00f8nsberg, Norway."}], "contributor": {"type": "Practitioner", "display": "Sm\u00e5stuen MC", "reference": "#contributor1"}, "forenameInitials": "MC"}, {"affiliation": [{"display": "Morbid Obesity Centre, Vestfold Hospital Trust, T\u00f8nsberg, Norway."}, {"display": "Department of Surgery, Vestfold Hospital Trust, T\u00f8nsberg, Norway."}], "contributor": {"type": "Practitioner", "display": "Sandbu R", "reference": "#contributor2"}, "forenameInitials": "R"}, {"affiliation": [{"display": "Morbid Obesity Centre, Vestfold Hospital Trust, T\u00f8nsberg, Norway."}], "contributor": {"type": "Practitioner", "display": "Nordstrand N", "reference": "#contributor3"}, "forenameInitials": "N"}, {"affiliation": [{"display": "Morbid Obesity Centre, Vestfold Hospital Trust, T\u00f8nsberg, Norway."}], "contributor": {"type": "Practitioner", "display": "Hofs\u00f8 D", "reference": "#contributor4"}, "forenameInitials": "D"}, {"affiliation": [{"display": "Department of Laboratory Medicine, Vestfold Hospital Trust, T\u00f8nsberg, Norway."}], "contributor": {"type": "Practitioner", "display": "Lindberg M", "reference": "#contributor5"}, "forenameInitials": "M"}, {"affiliation": [{"display": "Morbid Obesity Centre, Vestfold Hospital Trust, T\u00f8nsberg, Norway."}], "contributor": {"type": "Practitioner", "display": "Hertel JK", "reference": "#contributor6"}, "forenameInitials": "JK"}, {"affiliation": [{"display": "Morbid Obesity Centre, Vestfold Hospital Trust, T\u00f8nsberg, Norway."}, {"display": "Department of Endocrinology, Morbid Obesity and Preventive Medicine, Institute of Clinical Medicine, University of Oslo, Oslo, Norway."}], "contributor": {"type": "Practitioner", "display": "Hjelmes\u00e6th J", "reference": "#contributor7"}, "forenameInitials": "J"}], "complete": true}, "publicationForm": [{"issue": "3", "volume": "319", "language": [{"coding": [{"system": "urn:ietf:bcp:47", "code": "en", "display": "English"}]}], "pageString": "291-301", "articleDate": "2018-01-16", "citedMedium": {"text": "internet"}, "publishedIn": {"type": {"coding": [{"code": "D020492", "system": "http://terminology.hl7.org/CodeSystem/published-in-type", "display": "Periodical"}]}, "title": "JAMA", "identifier": [{"type": {"text": "Electronic ISSN Type", "coding": [{"code": "Electronic", "system": "https://www.nlm.nih.gov/bsd/licensee/elements_descriptions.html#issn", "display": "Electronic"}]}, "value": "1538-3598", "system": "https://portal.issn.org"}, {"type": {"text": "ISOAbbreviation", "coding": [{"system": "http://terminology.hl7.org/CodeSystem/v2-0203", "code": "XX", "display": "Organization identifier"}]}, "value": "JAMA", "system": "https://www.issn.org/services/online-services/access-to-the-ltwa/"}, {"type": {"text": "ISSN Linking", "coding": [{"system": "http://terminology.hl7.org/CodeSystem/v2-0203", "code": "XX", "display": "Organization identifier"}]}, "value": "0098-7484", "system": "https://www.issn.org/understanding-the-issn/assignment-rules/the-issn-l-for-publications-on-multiple-media/"}, {"type": {"text": "Medline Title Abbreviation", "coding": [{"system": "http://terminology.hl7.org/CodeSystem/v2-0203", "code": "XX", "display": "Organization identifier"}]}, "value": "JAMA", "system": "https://www.nlm.nih.gov/tsd/cataloging/contructitleabbre.html"}, {"type": {"text": "NLM Unique ID", "coding": [{"system": "http://terminology.hl7.org/CodeSystem/v2-0203", "code": "XX", "display": "Organization identifier"}]}, "value": "7501160", "system": "https://locatorplus.gov/cgi-bin/Pwebrecon.cgi?DB=local"}], "publisherLocation": "United States"}}]}, "classification": [{"type": {"coding": [{"code": "citation-source", "system": "http://terminology.hl7.org/CodeSystem/citation-classification-type", "display": "Citation Source"}]}, "classifier": [{"text": "MEDLINE"}]}, {"type": {"coding": [{"code": "medline-owner", "system": "http://terminology.hl7.org/CodeSystem/citation-classification-type", "display": "MEDLINE Citation Owner"}]}, "classifier": [{"coding": [{"code": "NLM", "system": "https://www.nlm.nih.gov/bsd/licensee/elements_descriptions.html#owner_value", "display": "National Library of Medicine, Index Section", "userSelected": false}]}]}], "lastReviewDate": "2022-03-30", "description": "This Citation Resource is referenced in an example for the EBMonFHIR Implementation Guide."}