{"resourceType": "Citation", "contained": [{"resourceType": "ArtifactAssessment", "id": "meshHeading0", "artifactReference": {"reference": "#", "type": "Citation"}, "content": [{"type": {"coding": [{"system": "http://hl7.org/fhir/cited-artifact-classification-type", "code": "mesh-heading", "display": "MeSH heading"}], "text": "components (if present) include qualifier codings"}, "classifier": [{"coding": [{"system": "https://www.nlm.nih.gov/mesh", "code": "D000328", "display": "Adult", "userSelected": false}]}], "freeToShare": true, "component": [{"type": {"text": "qualifier"}, "classifier": [{"text": "is not a major topic"}]}]}, {"type": {"coding": [{"system": "http://hl7.org/fhir/cited-artifact-classification-type", "code": "mesh-heading", "display": "MeSH heading"}], "text": "components (if present) include qualifier codings"}, "classifier": [{"coding": [{"system": "https://www.nlm.nih.gov/mesh", "code": "D005260", "display": "Female", "userSelected": false}]}], "freeToShare": true, "component": [{"type": {"text": "qualifier"}, "classifier": [{"text": "is not a major topic"}]}]}, {"type": {"coding": [{"system": "http://hl7.org/fhir/cited-artifact-classification-type", "code": "mesh-heading", "display": "MeSH heading"}], "text": "components (if present) include qualifier codings"}, "classifier": [{"coding": [{"system": "https://www.nlm.nih.gov/mesh", "code": "D006801", "display": "Humans", "userSelected": false}]}], "freeToShare": true, "component": [{"type": {"text": "qualifier"}, "classifier": [{"text": "is not a major topic"}]}]}, {"type": {"coding": [{"system": "http://hl7.org/fhir/cited-artifact-classification-type", "code": "mesh-heading", "display": "MeSH heading"}], "text": "components (if present) include qualifier codings"}, "classifier": [{"coding": [{"system": "https://www.nlm.nih.gov/mesh", "code": "D011247", "display": "Pregnancy", "userSelected": false}]}], "freeToShare": true, "component": [{"type": {"text": "qualifier"}, "classifier": [{"text": "is not a major topic"}]}]}, {"type": {"coding": [{"system": "http://hl7.org/fhir/cited-artifact-classification-type", "code": "mesh-heading", "display": "MeSH heading"}], "text": "components (if present) include qualifier codings"}, "classifier": [{"coding": [{"system": "https://www.nlm.nih.gov/mesh", "code": "D019380", "display": "Anti-HIV Agents", "userSelected": false}]}], "freeToShare": true, "component": [{"type": {"text": "qualifier"}, "classifier": [{"text": "is Major topic"}]}]}, {"type": {"coding": [{"system": "http://hl7.org/fhir/cited-artifact-classification-type", "code": "mesh-heading", "display": "MeSH heading"}], "text": "components (if present) include qualifier codings"}, "classifier": [{"coding": [{"system": "https://www.nlm.nih.gov/mesh", "code": "D054659", "display": "Diketopiperazines", "userSelected": false}]}], "freeToShare": true, "component": [{"type": {"text": "qualifier"}, "classifier": [{"text": "is not a major topic"}]}]}, {"type": {"coding": [{"system": "http://hl7.org/fhir/cited-artifact-classification-type", "code": "mesh-heading", "display": "MeSH heading"}], "text": "components (if present) include qualifier codings"}, "classifier": [{"coding": [{"system": "https://www.nlm.nih.gov/mesh", "code": "D000068679", "display": "Emtricitabine", "userSelected": false}]}], "freeToShare": true, "component": [{"type": {"text": "qualifier"}, "classifier": [{"text": "is not a major topic"}]}, {"type": {"text": "qualifier"}, "classifier": [{"coding": [{"system": "https://www.nlm.nih.gov/mesh", "code": "Q000627", "display": "therapeutic use"}]}], "component": [{"type": {"text": "is Major topic"}, "classifier": [{"coding": [{"system": "http://ncicb.nci.nih.gov/xml/owl/EVS/Thesaurus.owl", "code": "C49487", "display": "No"}]}]}]}]}, {"type": {"coding": [{"system": "http://hl7.org/fhir/cited-artifact-classification-type", "code": "mesh-heading", "display": "MeSH heading"}], "text": "components (if present) include qualifier codings"}, "classifier": [{"coding": [{"system": "https://www.nlm.nih.gov/mesh", "code": "D015658", "display": "HIV Infections", "userSelected": false}]}], "freeToShare": true, "component": [{"type": {"text": "qualifier"}, "classifier": [{"text": "is Major topic"}]}, {"type": {"text": "qualifier"}, "classifier": [{"coding": [{"system": "https://www.nlm.nih.gov/mesh", "code": "Q000139", "display": "chemically induced"}]}], "component": [{"type": {"text": "is Major topic"}, "classifier": [{"coding": [{"system": "http://ncicb.nci.nih.gov/xml/owl/EVS/Thesaurus.owl", "code": "C49487", "display": "No"}]}]}]}, {"type": {"text": "qualifier"}, "classifier": [{"coding": [{"system": "https://www.nlm.nih.gov/mesh", "code": "Q000453", "display": "epidemiology"}]}], "component": [{"type": {"text": "is Major topic"}, "classifier": [{"coding": [{"system": "http://ncicb.nci.nih.gov/xml/owl/EVS/Thesaurus.owl", "code": "C49487", "display": "No"}]}]}]}, {"type": {"text": "qualifier"}, "classifier": [{"coding": [{"system": "https://www.nlm.nih.gov/mesh", "code": "Q000517", "display": "prevention & control"}]}], "component": [{"type": {"text": "is Major topic"}, "classifier": [{"coding": [{"system": "http://ncicb.nci.nih.gov/xml/owl/EVS/Thesaurus.owl", "code": "C49487", "display": "No"}]}]}]}]}, {"type": {"coding": [{"system": "http://hl7.org/fhir/cited-artifact-classification-type", "code": "mesh-heading", "display": "MeSH heading"}], "text": "components (if present) include qualifier codings"}, "classifier": [{"coding": [{"system": "https://www.nlm.nih.gov/mesh", "code": "D006679", "display": "HIV Seropositivity", "userSelected": false}]}], "freeToShare": true, "component": [{"type": {"text": "qualifier"}, "classifier": [{"text": "is Major topic"}]}, {"type": {"text": "qualifier"}, "classifier": [{"coding": [{"system": "https://www.nlm.nih.gov/mesh", "code": "Q000188", "display": "drug therapy"}]}], "component": [{"type": {"text": "is Major topic"}, "classifier": [{"coding": [{"system": "http://ncicb.nci.nih.gov/xml/owl/EVS/Thesaurus.owl", "code": "C49487", "display": "No"}]}]}]}]}, {"type": {"coding": [{"system": "http://hl7.org/fhir/cited-artifact-classification-type", "code": "mesh-heading", "display": "MeSH heading"}], "text": "components (if present) include qualifier codings"}, "classifier": [{"coding": [{"system": "https://www.nlm.nih.gov/mesh", "code": "D015497", "display": "HIV-1", "userSelected": false}]}], "freeToShare": true, "component": [{"type": {"text": "qualifier"}, "classifier": [{"text": "is Major topic"}]}]}, {"type": {"coding": [{"system": "http://hl7.org/fhir/cited-artifact-classification-type", "code": "mesh-heading", "display": "MeSH heading"}], "text": "components (if present) include qualifier codings"}, "classifier": [{"coding": [{"system": "https://www.nlm.nih.gov/mesh", "code": "D011728", "display": "Pyridones", "userSelected": false}]}], "freeToShare": true, "component": [{"type": {"text": "qualifier"}, "classifier": [{"text": "is not a major topic"}]}, {"type": {"text": "qualifier"}, "classifier": [{"coding": [{"system": "https://www.nlm.nih.gov/mesh", "code": "Q000627", "display": "therapeutic use"}]}], "component": [{"type": {"text": "is Major topic"}, "classifier": [{"coding": [{"system": "http://ncicb.nci.nih.gov/xml/owl/EVS/Thesaurus.owl", "code": "C49487", "display": "No"}]}]}]}]}, {"type": {"coding": [{"system": "http://hl7.org/fhir/cited-artifact-classification-type", "code": "mesh-heading", "display": "MeSH heading"}], "text": "components (if present) include qualifier codings"}, "classifier": [{"coding": [{"system": "https://www.nlm.nih.gov/mesh", "code": "D008297", "display": "Male", "userSelected": false}]}], "freeToShare": true, "component": [{"type": {"text": "qualifier"}, "classifier": [{"text": "is not a major topic"}]}]}, {"type": {"coding": [{"system": "http://hl7.org/fhir/cited-artifact-classification-type", "code": "mesh-heading", "display": "MeSH heading"}], "text": "components (if present) include qualifier codings"}, "classifier": [{"coding": [{"system": "https://www.nlm.nih.gov/mesh", "code": "D000293", "display": "Adolescent", "userSelected": false}]}], "freeToShare": true, "component": [{"type": {"text": "qualifier"}, "classifier": [{"text": "is not a major topic"}]}]}, {"type": {"coding": [{"system": "http://hl7.org/fhir/cited-artifact-classification-type", "code": "mesh-heading", "display": "MeSH heading"}], "text": "components (if present) include qualifier codings"}, "classifier": [{"coding": [{"system": "https://www.nlm.nih.gov/mesh", "code": "D055815", "display": "Young Adult", "userSelected": false}]}], "freeToShare": true, "component": [{"type": {"text": "qualifier"}, "classifier": [{"text": "is not a major topic"}]}]}, {"type": {"coding": [{"system": "http://hl7.org/fhir/cited-artifact-classification-type", "code": "mesh-heading", "display": "MeSH heading"}], "text": "components (if present) include qualifier codings"}, "classifier": [{"coding": [{"system": "https://www.nlm.nih.gov/mesh", "code": "D008875", "display": "Middle Aged", "userSelected": false}]}], "freeToShare": true, "component": [{"type": {"text": "qualifier"}, "classifier": [{"text": "is not a major topic"}]}]}]}, {"resourceType": "Practitioner", "id": "contributor0", "name": [{"family": "Delany-Moretlwe", "given": ["Sinead"]}]}, {"resourceType": "Practitioner", "id": "contributor1", "name": [{"family": "Hughes", "given": ["James P"]}]}, {"resourceType": "Practitioner", "id": "contributor2", "name": [{"family": "Bock", "given": ["Peter"]}]}, {"resourceType": "Practitioner", "id": "contributor3", "name": [{"family": "Ouma", "given": ["Samuel Gurrion"]}]}, {"resourceType": "Practitioner", "id": "contributor4", "name": [{"family": "Hunidzarira", "given": ["Portia"]}]}, {"resourceType": "Practitioner", "id": "contributor5", "name": [{"family": "Kalonji", "given": ["Dishiki"]}]}, {"resourceType": "Practitioner", "id": "contributor6", "name": [{"family": "Kayange", "given": ["Noel"]}]}, {"resourceType": "Practitioner", "id": "contributor7", "name": [{"family": "Makhema", "given": ["Joseph"]}]}, {"resourceType": "Practitioner", "id": "contributor8", "name": [{"family": "Mandima", "given": ["Patricia"]}]}, {"resourceType": "Practitioner", "id": "contributor9", "name": [{"family": "Mathew", "given": ["Carrie"]}]}, {"resourceType": "Practitioner", "id": "contributor10", "name": [{"family": "Spooner", "given": ["Elizabeth"]}]}, {"resourceType": "Practitioner", "id": "contributor11", "name": [{"family": "Mpendo", "given": ["Juliet"]}]}, {"resourceType": "Practitioner", "id": "contributor12", "name": [{"family": "Mukwekwerere", "given": ["Pamela"]}]}, {"resourceType": "Practitioner", "id": "contributor13", "name": [{"family": "Mgodi", "given": ["Nyaradzo"]}]}, {"resourceType": "Practitioner", "id": "contributor14", "name": [{"family": "Ntege", "given": ["Patricia Nahirya"]}]}, {"resourceType": "Practitioner", "id": "contributor15", "name": [{"family": "Nair", "given": ["Gonasagrie"]}]}, {"resourceType": "Practitioner", "id": "contributor16", "name": [{"family": "Nakabiito", "given": ["Clemensia"]}]}, {"resourceType": "Practitioner", "id": "contributor17", "name": [{"family": "Nuwagaba-Biribonwoha", "given": ["Harriet"]}]}, {"resourceType": "Practitioner", "id": "contributor18", "name": [{"family": "Panchia", "given": ["Ravindre"]}]}, {"resourceType": "Practitioner", "id": "contributor19", "name": [{"family": "Singh", "given": ["Nishanta"]}]}, {"resourceType": "Practitioner", "id": "contributor20", "name": [{"family": "Siziba", "given": ["Bekezela"]}]}, {"resourceType": "Practitioner", "id": "contributor21", "name": [{"family": "Farrior", "given": ["Jennifer"]}]}, {"resourceType": "Practitioner", "id": "contributor22", "name": [{"family": "Rose", "given": ["Scott"]}]}, {"resourceType": "Practitioner", "id": "contributor23", "name": [{"family": "Anderson", "given": ["Peter L"]}]}, {"resourceType": "Practitioner", "id": "contributor24", "name": [{"family": "Eshleman", "given": ["Susan H"]}]}, {"resourceType": "Practitioner", "id": "contributor25", "name": [{"family": "Marzinke", "given": ["Mark A"]}]}, {"resourceType": "Practitioner", "id": "contributor26", "name": [{"family": "Hendrix", "given": ["Craig W"]}]}, {"resourceType": "Practitioner", "id": "contributor27", "name": [{"family": "Beigel-Orme", "given": ["Stephanie"]}]}, {"resourceType": "Practitioner", "id": "contributor28", "name": [{"family": "Hosek", "given": ["Sybil"]}]}, {"resourceType": "Practitioner", "id": "contributor29", "name": [{"family": "Tolley", "given": ["Elizabeth"]}]}, {"resourceType": "Practitioner", "id": "contributor30", "name": [{"family": "Sista", "given": ["Nirupama"]}]}, {"resourceType": "Practitioner", "id": "contributor31", "name": [{"family": "Adeyeye", "given": ["Adeola"]}]}, {"resourceType": "Practitioner", "id": "contributor32", "name": [{"family": "Rooney", "given": ["James F"]}]}, {"resourceType": "Practitioner", "id": "contributor33", "name": [{"family": "Rinehart", "given": ["Alex"]}]}, {"resourceType": "Practitioner", "id": "contributor34", "name": [{"family": "Spreen", "given": ["William R"]}]}, {"resourceType": "Practitioner", "id": "contributor35", "name": [{"family": "Smith", "given": ["Kimberly"]}]}, {"resourceType": "Practitioner", "id": "contributor36", "name": [{"family": "Hanscom", "given": ["Brett"]}]}, {"resourceType": "Practitioner", "id": "contributor37", "name": [{"family": "Cohen", "given": ["Myron S"]}]}, {"resourceType": "Practitioner", "id": "contributor38", "name": [{"family": "Hosseinipour", "given": ["Mina C"]}]}, {"resourceType": "Organization", "id": "contributor39", "name": "HPTN 084 study group"}], "useContext": [{"code": {"system": "http://hl7.org/fhir/citation-classification-type", "code": "fevir-platform-use", "display": "FEvIR Platform Use"}, "valueCodeableConcept": {"coding": [{"system": "http://hl7.org/fhir/citation-artifact-classifier", "code": "project-specific", "display": "Project Specific"}]}}], "classification": [{"type": {"coding": [{"system": "http://hl7.org/fhir/citation-classification-type", "code": "citation-source", "display": "Citation Source"}]}, "classifier": [{"text": "MEDLINE"}]}, {"type": {"coding": [{"system": "http://hl7.org/fhir/citation-classification-type", "code": "medline-owner", "display": "MEDLINE Citation Owner"}]}, "classifier": [{"coding": [{"system": "https://www.nlm.nih.gov/bsd/licensee/elements_descriptions.html#owner_value", "code": "NLM", "display": "National Library of Medicine, Index Section", "userSelected": false}]}]}], "statusDate": [{"activity": {"coding": [{"system": "http://hl7.org/fhir/citation-status-type", "code": "pubmed-pubstatus-received", "display": "PubMed Pubstatus of Received"}]}, "period": {"end": "2022-02-27"}}, {"activity": {"coding": [{"system": "http://hl7.org/fhir/citation-status-type", "code": "pubmed-pubstatus-revised", "display": "PubMed Pubstatus of Revised"}]}, "period": {"end": "2022-03-12"}}, {"activity": {"coding": [{"system": "http://hl7.org/fhir/citation-status-type", "code": "pubmed-pubstatus-accepted", "display": "PubMed Pubstatus of Accepted"}]}, "period": {"end": "2022-03-14"}}, {"activity": {"coding": [{"system": "http://hl7.org/fhir/citation-status-type", "code": "pubmed-pubstatus-pubmed", "display": "PubMed Pubstatus of PubMed"}]}, "period": {"end": "2022-04-05T06:00:00.000Z"}}, {"activity": {"coding": [{"system": "http://hl7.org/fhir/citation-status-type", "code": "pubmed-pubstatus-medline", "display": "PubMed Pubstatus of Medline"}]}, "period": {"end": "2022-05-11T06:00:00.000Z"}}, {"activity": {"coding": [{"system": "http://hl7.org/fhir/citation-status-type", "code": "pubmed-pubstatus-entrez", "display": "PubMed Pubstatus of Entrez"}]}, "period": {"end": "2022-04-04T20:10:00.000Z"}}], "citedArtifact": {"identifier": [{"system": "https://pubmed.ncbi.nlm.nih.gov", "value": "35378077", "assigner": {"display": "NLM"}}, {"system": "https://www.ncbi.nlm.nih.gov/pmc/", "value": "PMC9077443", "assigner": {"display": "NLM"}}, {"system": "https://doi.org", "value": "10.1016/S0140-6736(22)00538-4"}, {"type": {"text": "pii", "coding": [{"system": "http://terminology.hl7.org/CodeSystem/v2-0203", "code": "ACSN", "display": "Accession ID"}]}, "value": "S0140-6736(22)00538-4"}], "relatedIdentifier": [{"assigner": {"display": "NLM"}, "system": "https://clinicaltrials.gov", "value": "NCT03164564"}], "title": [{"text": "Cabotegravir for the prevention of HIV-1 in women: results from HPTN 084, a phase 3, randomised clinical trial.", "language": "en", "type": [{"coding": [{"system": "http://hl7.org/fhir/title-type", "code": "primary", "display": "Primary title"}]}]}], "abstract": [{"copyright": "Copyright \u00a9 2022 The Author(s). Published by Elsevier Ltd. This is an Open Access article under the CC BY 4.0 license. Published by Elsevier Ltd.. All rights reserved.", "text": "**BACKGROUND:** Oral pre-exposure prophylaxis has been introduced in more than 70 countries, including many in sub-Saharan Africa, but women experience considerable barriers to daily pill-taking, such as stigma, judgement, and the fear of violence. Safe and effective long-acting agents for HIV prevention are needed for women. We aimed to evaluate the safety and efficacy of injectable cabotegravir compared with daily oral tenofovir diphosphate plus emtricitabine (TDF-FTC) for HIV prevention in HIV-uninfected women.\n**METHODS:** HPTN 084 was a phase 3, randomised, double-blind, double-dummy, active-controlled, superiority trial in 20 clinical research sites in seven countries in sub-Saharan Africa. Participants were eligible for enrolment if they were assigned female sex at birth, were aged 18-45 years, reported at least two episodes of vaginal intercourse in the previous 30 days, were at risk of HIV infection based on an HIV risk score, and agreed to use a long-acting reversible contraceptive method. Participants were randomly assigned (1:1) to either active cabotegravir with TDF-FTC placebo (cabotegravir group) or active TDF-FTC with cabotegravir placebo (TDF-FTC group). Study staff and participants were masked to study group allocation, with the exception of the site pharmacist who was responsible for study product preparation. Participants were prescribed 5 weeks of daily oral product followed by intramuscular injections every 8 weeks after an initial 4-week interval load, alongside daily oral pills. Participants who discontinued injections were offered open-label daily TDF-FTC for 48 weeks. The primary endpoints of the study were incident HIV infection in the intention-to-treat population, and clinical and laboratory events that were grade 2 or higher in all women who had received at least one dose of study product. This study is registered with ClinicalTrials.gov, NCT03164564.\n**FINDINGS:** From Nov 27, 2017, to Nov 4, 2020, we enrolled 3224 participants (1614 in the cabotegravir group and 1610 in the TDF-FTC group). Median age was 25 years (IQR 22-30); 1755 (54\u00b77%) of 3209 had two or more partners in the preceding month. 40 incident infections were observed over 3898 person-years (HIV incidence 1\u00b70% [95% CI 0\u00b773-1\u00b740]); four in the cabotegravir group (HIV incidence 0\u00b72 cases per 100 person-years [0\u00b706-0\u00b752]) and 36 in the TDF-FTC group (1\u00b785 cases per 100 person-years [1\u00b73-2\u00b757]; hazard ratio 0\u00b712 [0\u00b705-0\u00b731]; p&lt;0\u00b70001; risk difference -1\u00b76% [-1\u00b70% to -2\u00b73%]. In a random subset of 405 TDF-FTC participants, 812 (42\u00b71%) of 1929 plasma samples had tenofovir concentrations consistent with daily use. Injection coverage was 93% of the total number of person-years. Adverse event rates were similar across both groups, apart from injection site reactions, which were more frequent in the cabotegravir group than in the TDF-FTC group (577 [38\u00b70%] of 1519 vs 162 [10\u00b77%] of 1516]) but did not result in injection discontinuation. Confirmed pregnancy incidence was 1\u00b73 per 100 person-years (0\u00b79-1\u00b77); no congenital birth anomalies were reported.\n**INTERPRETATION:** Although both products for HIV prevention were generally safe, well tolerated, and effective, cabotegravir was superior to TDF-FTC in preventing HIV infection in women.\n**FUNDING:** National Institute of Allergy and Infectious Diseases, ViiV Healthcare, and the Bill &amp; Melinda Gates Foundation. Additional support was provided through the National Institute of Mental Health, the National Institute on Drug Abuse, and the Eunice Kennedy Shriver National Institute of Child Health and Human Development. ViiV Healthcare and Gilead Sciences provided pharmaceutical support."}], "relatesTo": [{"type": "cites", "citation": "UNAIDS  Confronting inequalities: lessons for pandemic responses from 40 years of AIDS. July 14, 2021. https://www.unaids.org/en/resources/documents/2021/2021-global-aids-update-slideset"}, {"type": "cites", "citation": "WHO . World Health Organization; Geneva: 2015. Policy brief: pre-exposure prophylaxis (PrEP): WHO expands recommendation on oral pre-exposure prophylaxis of HIV infection (PrEP)"}, {"type": "cites", "classifier": [{"coding": [{"system": "http://hl7.org/fhir/citation-artifact-classifier", "code": "D016428", "display": "Journal Article"}]}], "citation": "Celum CL, Delany-Moretlwe S, Baeten JM, et al. HIV pre-exposure prophylaxis for adolescent girls and young women in Africa: from efficacy trials to delivery. J Int AIDS Soc. 2019;22(suppl 4)", "targetReference": {"identifier": {"assigner": {"display": "NLM"}, "system": "https://pubmed.ncbi.nlm.nih.gov", "value": "31328444"}, "reference": "https://pubmed.ncbi.nlm.nih.gov/31328444/"}}, {"type": "cites", "classifier": [{"coding": [{"system": "http://hl7.org/fhir/citation-artifact-classifier", "code": "D016428", "display": "Journal Article"}]}], "citation": "Velloza J, Khoza N, Scorgie F, et al. The influence of HIV-related stigma on PrEP disclosure and adherence among adolescent girls and young women in HPTN 082: a qualitative study. J Int AIDS Soc. 2020;23", "targetReference": {"identifier": {"system": "https://pubmed.ncbi.nlm.nih.gov", "value": "32144874", "assigner": {"display": "NLM"}}, "reference": "https://pubmed.ncbi.nlm.nih.gov/32144874/"}}, {"type": "cites", "classifier": [{"coding": [{"system": "http://hl7.org/fhir/citation-artifact-classifier", "code": "D016428", "display": "Journal Article"}]}], "citation": "Cottrell ML, Yang KH, Prince HM, et al. A translational pharmacology approach to predicting outcomes of preexposure prophylaxis against HIV in men and women using tenofovir disoproxil fumarate with or without emtricitabine. J Infect Dis. 2016;214:55\u201364.", "targetReference": {"identifier": {"system": "https://pubmed.ncbi.nlm.nih.gov", "value": "26917574", "assigner": {"display": "NLM"}}, "reference": "https://pubmed.ncbi.nlm.nih.gov/26917574/"}}, {"type": "cites", "classifier": [{"coding": [{"system": "http://hl7.org/fhir/citation-artifact-classifier", "code": "D016428", "display": "Journal Article"}]}], "citation": "Andrews CD, Yueh YL, Spreen WR, et al. A long-acting integrase inhibitor protects female macaques from repeated high-dose intravaginal SHIV challenge. Sci Transl Med. 2015;7", "targetReference": {"identifier": {"system": "https://pubmed.ncbi.nlm.nih.gov", "value": "25589630", "assigner": {"display": "NLM"}}, "reference": "https://pubmed.ncbi.nlm.nih.gov/25589630/"}}, {"type": "cites", "classifier": [{"coding": [{"system": "http://hl7.org/fhir/citation-artifact-classifier", "code": "D016428", "display": "Journal Article"}]}], "citation": "Radzio J, Spreen W, Yueh YL, et al. The long-acting integrase inhibitor GSK744 protects macaques from repeated intravaginal SHIV challenge. Sci Transl Med. 2015;7", "targetReference": {"identifier": {"system": "https://pubmed.ncbi.nlm.nih.gov", "value": "25589631", "assigner": {"display": "NLM"}}, "reference": "https://pubmed.ncbi.nlm.nih.gov/25589631/"}}, {"type": "cites", "classifier": [{"coding": [{"system": "http://hl7.org/fhir/citation-artifact-classifier", "code": "D016428", "display": "Journal Article"}]}], "citation": "Markowitz M, Frank I, Grant RM, et al. Safety and tolerability of long-acting cabotegravir injections in HIV-uninfected men (ECLAIR): a multicentre, double-blind, randomised, placebo-controlled, phase 2a trial. Lancet HIV. 2017;4:e331\u2013e340.", "targetReference": {"identifier": {"system": "https://pubmed.ncbi.nlm.nih.gov", "value": "28546090", "assigner": {"display": "NLM"}}, "reference": "https://pubmed.ncbi.nlm.nih.gov/28546090/"}}, {"type": "cites", "classifier": [{"coding": [{"system": "http://hl7.org/fhir/citation-artifact-classifier", "code": "D016428", "display": "Journal Article"}]}], "citation": "Landovitz RJ, Li S, Grinsztejn B, et al. Safety, tolerability, and pharmacokinetics of long-acting injectable cabotegravir in low-risk HIV-uninfected individuals: HPTN 077, a phase 2a randomized controlled trial. PLoS Med. 2018;15", "targetReference": {"identifier": {"system": "https://pubmed.ncbi.nlm.nih.gov", "value": "30408115", "assigner": {"display": "NLM"}}, "reference": "https://pubmed.ncbi.nlm.nih.gov/30408115/"}}, {"type": "cites", "classifier": [{"coding": [{"system": "http://hl7.org/fhir/citation-artifact-classifier", "code": "D016428", "display": "Journal Article"}]}], "citation": "Landovitz RJ, Donnell D, Clement ME, et al. Cabotegravir for HIV prevention in cisgender men and transgender women. N Engl J Med. 2021;385:595\u2013608.", "targetReference": {"identifier": {"system": "https://pubmed.ncbi.nlm.nih.gov", "value": "34379922", "assigner": {"display": "NLM"}}, "reference": "https://pubmed.ncbi.nlm.nih.gov/34379922/"}}, {"type": "cites", "classifier": [{"coding": [{"system": "http://hl7.org/fhir/citation-artifact-classifier", "code": "D016428", "display": "Journal Article"}]}], "citation": "Balkus JE, Brown E, Palanee T, et al. An empiric HIV risk scoring tool to predict HIV-1 acquisition in African women. J Acquir Immune Defic Syndr. 2016;72:333\u2013343.", "targetReference": {"identifier": {"system": "https://pubmed.ncbi.nlm.nih.gov", "value": "26918545", "assigner": {"display": "NLM"}}, "reference": "https://pubmed.ncbi.nlm.nih.gov/26918545/"}}, {"type": "cites", "classifier": [{"coding": [{"system": "http://hl7.org/fhir/citation-artifact-classifier", "code": "D016428", "display": "Journal Article"}]}], "citation": "Eshleman SH, Fogel JM, Piwowar-Manning E, et al. Characterization of HIV infections in women who received injectable cabotegravir or tenofovir disoproxil fumarate/emtricitabine for HIV prevention: HPTN 084. J Infect Dis (in press).", "targetReference": {"identifier": {"system": "https://pubmed.ncbi.nlm.nih.gov", "value": "35301540", "assigner": {"display": "NLM"}}, "reference": "https://pubmed.ncbi.nlm.nih.gov/35301540/"}}, {"type": "cites", "classifier": [{"coding": [{"system": "http://hl7.org/fhir/citation-artifact-classifier", "code": "D016428", "display": "Journal Article"}]}], "citation": "Castillo-Mancilla JR, Zheng JH, Rower JE, et al. Tenofovir, emtricitabine, and tenofovir diphosphate in dried blood spots for determining recent and cumulative drug exposure. AIDS Res Hum Retroviruses. 2013;29:384\u2013390.", "targetReference": {"identifier": {"system": "https://pubmed.ncbi.nlm.nih.gov", "value": "22935078", "assigner": {"display": "NLM"}}, "reference": "https://pubmed.ncbi.nlm.nih.gov/22935078/"}}, {"type": "cites", "classifier": [{"coding": [{"system": "http://hl7.org/fhir/citation-artifact-classifier", "code": "D016428", "display": "Journal Article"}]}], "citation": "Anderson PL, Liu AY, Castillo-Mancilla JR, et al. Intracellular tenofovir-diphosphate and emtricitabine-triphosphate in dried blood spots following directly observed therapy. Antimicrob Agents Chemother. 2017;62:e01710\u2013e01717.", "targetReference": {"identifier": {"system": "https://pubmed.ncbi.nlm.nih.gov", "value": "29038282", "assigner": {"display": "NLM"}}, "reference": "https://pubmed.ncbi.nlm.nih.gov/29038282/"}}, {"type": "cites", "classifier": [{"coding": [{"system": "http://hl7.org/fhir/citation-artifact-classifier", "code": "D016428", "display": "Journal Article"}]}], "citation": "Hendrix CW, Andrade A, Bumpus NN, et al. Dose frequency ranging pharmacokinetic study of tenofovir-emtricitabine after directly observed dosing in healthy volunteers to establish adherence benchmarks (HPTN 066) AIDS Res Hum Retroviruses. 2016;32:32\u201343.", "targetReference": {"identifier": {"system": "https://pubmed.ncbi.nlm.nih.gov", "value": "26414912", "assigner": {"display": "NLM"}}, "reference": "https://pubmed.ncbi.nlm.nih.gov/26414912/"}}, {"type": "cites", "classifier": [{"coding": [{"system": "http://hl7.org/fhir/citation-artifact-classifier", "code": "D016428", "display": "Journal Article"}]}], "citation": "Donnell D, Baeten JM, Bumpus NN, et al. HIV protective efficacy and correlates of tenofovir blood concentrations in a clinical trial of PrEP for HIV prevention. J Acquir Immune Defic Syndr. 2014;66:340\u2013348.", "targetReference": {"identifier": {"system": "https://pubmed.ncbi.nlm.nih.gov", "value": "24784763", "assigner": {"display": "NLM"}}, "reference": "https://pubmed.ncbi.nlm.nih.gov/24784763/"}}, {"type": "cites", "classifier": [{"coding": [{"system": "http://hl7.org/fhir/citation-artifact-classifier", "code": "D016428", "display": "Journal Article"}]}], "citation": "Marzinke MA, Grinsztejn B, Fogel JM, et al. Characterization of human immunodeficiency virus (HIV) infection in cisgender men and transgender women who have sex with men receiving injectable cabotegravir for HIV prevention: HPTN 083. J Infect Dis. 2021;224:1581\u20131592.", "targetReference": {"identifier": {"system": "https://pubmed.ncbi.nlm.nih.gov", "value": "33740057", "assigner": {"display": "NLM"}}, "reference": "https://pubmed.ncbi.nlm.nih.gov/33740057/"}}, {"type": "cites", "citation": "US Department of Health and Human Services  Division of AIDS (DAIDS) table for grading the severity of adult and pediatric adverse events, corrected version 2.1. July, 2017. https://rsc.niaid.nih.gov/sites/default/files/daidsgradingcorrectedv21.pdf"}, {"type": "cites", "citation": "Emerson SS, Fleming TR. Parameter estimation following group sequential hypothesis testing. Biometrika. 1990;77:875\u2013892."}, {"type": "cites", "classifier": [{"coding": [{"system": "http://hl7.org/fhir/citation-artifact-classifier", "code": "D016428", "display": "Journal Article"}]}], "citation": "Corey L, Gilbert PB, Juraska M, et al. Two randomized trials of neutralizing antibodies to prevent HIV-1 acquisition. N Engl J Med. 2021;384:1003\u20131014.", "targetReference": {"identifier": {"system": "https://pubmed.ncbi.nlm.nih.gov", "value": "33730454", "assigner": {"display": "NLM"}}, "reference": "https://pubmed.ncbi.nlm.nih.gov/33730454/"}}, {"type": "cites", "classifier": [{"coding": [{"system": "http://hl7.org/fhir/citation-artifact-classifier", "code": "D016428", "display": "Journal Article"}]}], "citation": "Gray GE, Bekker LG, Laher F, et al. Vaccine efficacy of ALVAC-HIV and bivalent subtype C gp120-MF59 in adults. N Engl J Med. 2021;384:1089\u20131100.", "targetReference": {"identifier": {"system": "https://pubmed.ncbi.nlm.nih.gov", "value": "33761206", "assigner": {"display": "NLM"}}, "reference": "https://pubmed.ncbi.nlm.nih.gov/33761206/"}}, {"type": "cites", "citation": "Palanee-Phillips T, Baeten J, Heller K, et al. HIV incidence remains high in women in South Africa: data from the ECHO trial. 10th International AIDS Society Conference on HIV Science; July 21\u201324, 2019 (abstr LBPEC23)."}, {"type": "cites", "classifier": [{"coding": [{"system": "http://hl7.org/fhir/citation-artifact-classifier", "code": "D016428", "display": "Journal Article"}]}], "citation": "Pillay D, Stankevitz K, Lanham M, et al. Factors influencing uptake, continuation, and discontinuation of oral PrEP among clients at sex worker and MSM facilities in South Africa. PLoS One. 2020;15", "targetReference": {"identifier": {"system": "https://pubmed.ncbi.nlm.nih.gov", "value": "32352969", "assigner": {"display": "NLM"}}, "reference": "https://pubmed.ncbi.nlm.nih.gov/32352969/"}}, {"type": "cites", "classifier": [{"coding": [{"system": "http://hl7.org/fhir/citation-artifact-classifier", "code": "D016428", "display": "Journal Article"}]}], "citation": "B\u00e4rnighausen K, Geldsetzer P, Matse S, et al. Qualitative accounts of PrEP discontinuation from the general population in Eswatini. Cult Health Sex. 2021;23:1198\u20131214.", "targetReference": {"identifier": {"system": "https://pubmed.ncbi.nlm.nih.gov", "value": "32633617", "assigner": {"display": "NLM"}}, "reference": "https://pubmed.ncbi.nlm.nih.gov/32633617/"}}, {"type": "cites", "classifier": [{"coding": [{"system": "http://hl7.org/fhir/citation-artifact-classifier", "code": "D016428", "display": "Journal Article"}]}], "citation": "Quaife M, Eakle R, Cabrera Escobar MA, et al. Divergent preferences for HIV prevention: a discrete choice experiment for multipurpose HIV prevention products in South Africa. Med Decis Making. 2018;38:120\u2013133.", "targetReference": {"identifier": {"system": "https://pubmed.ncbi.nlm.nih.gov", "value": "28863752", "assigner": {"display": "NLM"}}, "reference": "https://pubmed.ncbi.nlm.nih.gov/28863752/"}}, {"type": "cites", "classifier": [{"coding": [{"system": "http://hl7.org/fhir/citation-artifact-classifier", "code": "D016428", "display": "Journal Article"}]}], "citation": "Minnis AM, Browne EN, Boeri M, et al. Young women's stated preferences for biomedical HIV prevention: results of a discrete choice experiment in Kenya and South Africa. J Acquir Immune Defic Syndr. 2019;80:394\u2013403.", "targetReference": {"identifier": {"system": "https://pubmed.ncbi.nlm.nih.gov", "value": "30633040", "assigner": {"display": "NLM"}}, "reference": "https://pubmed.ncbi.nlm.nih.gov/30633040/"}}, {"type": "cites", "classifier": [{"coding": [{"system": "http://hl7.org/fhir/citation-artifact-classifier", "code": "D016428", "display": "Journal Article"}]}], "citation": "Laher F, Salami T, Hornschuh S, et al. Willingness to use HIV prevention methods among vaccine efficacy trial participants in Soweto, South Africa: discretion is important. BMC Public Health. 2020;20", "targetReference": {"identifier": {"system": "https://pubmed.ncbi.nlm.nih.gov", "value": "33160341", "assigner": {"display": "NLM"}}, "reference": "https://pubmed.ncbi.nlm.nih.gov/33160341/"}}, {"type": "cites", "classifier": [{"coding": [{"system": "http://hl7.org/fhir/citation-artifact-classifier", "code": "D016428", "display": "Journal Article"}]}], "citation": "Marrazzo JM, Ramjee G, Richardson BA, et al. Tenofovir-based preexposure prophylaxis for HIV infection among African women. N Engl J Med. 2015;372:509\u2013518.", "targetReference": {"identifier": {"system": "https://pubmed.ncbi.nlm.nih.gov", "value": "25651245", "assigner": {"display": "NLM"}}, "reference": "https://pubmed.ncbi.nlm.nih.gov/25651245/"}}, {"type": "cites", "classifier": [{"coding": [{"system": "http://hl7.org/fhir/citation-artifact-classifier", "code": "D016428", "display": "Journal Article"}]}], "citation": "Baeten JM, Brown ER, Hillier SL. Dapivirine vaginal ring for HIV-1 prevention. N Engl J Med. 2017;376:995\u2013996.", "targetReference": {"identifier": {"system": "https://pubmed.ncbi.nlm.nih.gov", "value": "28273023", "assigner": {"display": "NLM"}}, "reference": "https://pubmed.ncbi.nlm.nih.gov/28273023/"}}, {"type": "cites", "classifier": [{"coding": [{"system": "http://hl7.org/fhir/citation-artifact-classifier", "code": "D016428", "display": "Journal Article"}]}], "citation": "Venter WDF, Moorhouse M, Sokhela S, et al. Dolutegravir plus two different prodrugs of tenofovir to treat HIV. N Engl J Med. 2019;381:803\u2013815.", "targetReference": {"identifier": {"system": "https://pubmed.ncbi.nlm.nih.gov", "value": "31339677", "assigner": {"display": "NLM"}}, "reference": "https://pubmed.ncbi.nlm.nih.gov/31339677/"}}, {"type": "cites", "classifier": [{"coding": [{"system": "http://hl7.org/fhir/citation-artifact-classifier", "code": "D016428", "display": "Journal Article"}]}], "citation": "Landovitz RJ, Zangeneh SZ, Chau G, et al. Cabotegravir is not associated with weight gain in human immunodeficiency virus-uninfected individuals in HPTN 077. Clin Infect Dis. 2020;70:319\u2013322.", "targetReference": {"identifier": {"system": "https://pubmed.ncbi.nlm.nih.gov", "value": "31125395", "assigner": {"display": "NLM"}}, "reference": "https://pubmed.ncbi.nlm.nih.gov/31125395/"}}, {"type": "cites", "citation": "Eshleman S, Fogel JM, Halvas EK, et al. CAB-LA PrEP: early detection of HIV infection may reduce InSTI resistance risk. 29th Conference on Retroviruses and Opportunistic Infections; Feb 12\u201316, 2022 (abstr Oral-08)."}, {"type": "comment-in", "classifier": [{"coding": [{"system": "https://www.nlm.nih.gov/mesh", "code": "D016420", "display": "Comment", "userSelected": false}]}], "citation": "Lancet. 2022 May 7;399(10337):1754-1755", "targetReference": {"identifier": {"system": "https://pubmed.ncbi.nlm.nih.gov", "value": "35378079", "assigner": {"display": "NLM"}}, "reference": "https://pubmed.ncbi.nlm.nih.gov/35378079/"}}, {"type": "correction-in", "classifier": [{"coding": [{"system": "https://www.nlm.nih.gov/mesh", "code": "D016425", "display": "Published Erratum", "userSelected": false}]}], "citation": "Lancet. 2022 May 7;399(10337):1778", "targetReference": {"identifier": {"system": "https://pubmed.ncbi.nlm.nih.gov", "value": "35526551", "assigner": {"display": "NLM"}}, "reference": "https://pubmed.ncbi.nlm.nih.gov/35526551/"}}, {"type": "comment-in", "classifier": [{"coding": [{"system": "https://www.nlm.nih.gov/mesh", "code": "D016420", "display": "Comment", "userSelected": false}]}], "citation": "Nat Med. 2022 Aug;28(8):1542-1543", "targetReference": {"identifier": {"system": "https://pubmed.ncbi.nlm.nih.gov", "value": "35869309", "assigner": {"display": "NLM"}}, "reference": "https://pubmed.ncbi.nlm.nih.gov/35869309/"}}, {"type": "comment-in", "classifier": [{"coding": [{"system": "https://www.nlm.nih.gov/mesh", "code": "D016420", "display": "Comment", "userSelected": false}]}], "citation": "Nature. 2022 Aug;608(7923):460-461", "targetReference": {"identifier": {"system": "https://pubmed.ncbi.nlm.nih.gov", "value": "35931763", "assigner": {"display": "NLM"}}, "reference": "https://pubmed.ncbi.nlm.nih.gov/35931763/"}}, {"type": "comment-in", "classifier": [{"coding": [{"system": "https://www.nlm.nih.gov/mesh", "code": "D016420", "display": "Comment", "userSelected": false}]}], "citation": "Nature. 2022 Aug;608(7922):239", "targetReference": {"identifier": {"system": "https://pubmed.ncbi.nlm.nih.gov", "value": "35945377", "assigner": {"display": "NLM"}}, "reference": "https://pubmed.ncbi.nlm.nih.gov/35945377/"}}], "publicationForm": [{"publishedIn": {"type": {"coding": [{"system": "http://hl7.org/fhir/published-in-type", "code": "D020492", "display": "Periodical"}]}, "identifier": [{"type": {"coding": [{"system": "https://www.nlm.nih.gov/bsd/licensee/elements_descriptions.html#issn", "code": "Electronic", "display": "Electronic"}], "text": "Electronic ISSN Type"}, "value": "1474-547X", "system": "https://portal.issn.org"}, {"type": {"text": "ISOAbbreviation", "coding": [{"system": "http://terminology.hl7.org/CodeSystem/v2-0203", "code": "XX", "display": "Organization identifier"}]}, "system": "https://www.issn.org/services/online-services/access-to-the-ltwa/", "value": "Lancet"}, {"type": {"text": "ISSN Linking", "coding": [{"system": "http://terminology.hl7.org/CodeSystem/v2-0203", "code": "XX", "display": "Organization identifier"}]}, "system": "https://www.issn.org/understanding-the-issn/assignment-rules/the-issn-l-for-publications-on-multiple-media/", "value": "0140-6736"}, {"type": {"text": "Medline Title Abbreviation", "coding": [{"system": "http://terminology.hl7.org/CodeSystem/v2-0203", "code": "XX", "display": "Organization identifier"}]}, "system": "https://www.nlm.nih.gov/tsd/cataloging/contructitleabbre.html", "value": "Lancet"}, {"type": {"text": "NLM Unique ID", "coding": [{"system": "http://terminology.hl7.org/CodeSystem/v2-0203", "code": "XX", "display": "Organization identifier"}]}, "system": "https://locatorplus.gov/cgi-bin/Pwebrecon.cgi?DB=local", "value": "2985213R"}], "title": "Lancet (London, England)", "publisherLocation": "England"}, "citedMedium": {"coding": [{"system": "http://hl7.org/fhir/cited-medium", "code": "internet", "display": "Internet"}]}, "volume": "399", "issue": "10337", "articleDate": "2022-05-07", "language": ["en"], "pageString": "1779-1789", "publicationDateText": "2022-May-07"}, {"citedMedium": {"coding": [{"system": "http://hl7.org/fhir/cited-medium", "code": "internet-without-issue", "display": "Internet without issue"}]}, "articleDate": "2022-04-01"}], "webLocation": [{"classifier": [{"coding": [{"system": "http://hl7.org/fhir/artifact-url-classifier", "code": "abstract", "display": "Abstract"}]}], "url": "https://pubmed.ncbi.nlm.nih.gov/35378077/"}, {"url": "https://doi.org/10.1016/S0140-6736(22)00538-4", "classifier": [{"coding": [{"system": "http://hl7.org/fhir/artifact-url-classifier", "code": "doi-based", "display": "DOI Based"}]}]}], "classification": [{"type": {"coding": [{"system": "http://hl7.org/fhir/cited-artifact-classification-type", "code": "publishing-model", "display": "Publishing Model", "userSelected": false}]}, "classifier": [{"coding": [{"system": "http://hl7.org/fhir/citation-artifact-classifier", "code": "Print-Electronic", "display": "Print Electronic", "userSelected": false}]}]}, {"type": {"coding": [{"system": "http://hl7.org/fhir/cited-artifact-classification-type", "code": "chemical", "display": "Chemical", "userSelected": false}]}, "classifier": [{"coding": [{"system": "https://www.nlm.nih.gov/mesh", "code": "D019380", "display": "Anti-HIV Agents", "userSelected": false}]}, {"coding": [{"system": "https://www.nlm.nih.gov/mesh", "code": "D054659", "display": "Diketopiperazines", "userSelected": false}]}, {"coding": [{"system": "https://www.nlm.nih.gov/mesh", "code": "D011728", "display": "Pyridones", "userSelected": false}]}, {"coding": [{"system": "https://www.cas.org/support/documentation/chemical-substances", "code": "G70B4ETF4S", "userSelected": false}, {"system": "https://www.nlm.nih.gov/mesh", "code": "D000068679", "display": "Emtricitabine", "userSelected": false}]}, {"coding": [{"system": "https://www.cas.org/support/documentation/chemical-substances", "code": "HMH0132Z1Q", "userSelected": false}, {"system": "https://www.nlm.nih.gov/mesh", "code": "C584914", "display": "cabotegravir", "userSelected": false}]}]}, {"type": {"coding": [{"system": "http://hl7.org/fhir/cited-artifact-classification-type", "code": "publication-type", "display": "Publication type"}]}, "classifier": [{"coding": [{"system": "https://www.nlm.nih.gov/mesh", "code": "D017428", "display": "Clinical Trial, Phase III", "userSelected": false}]}, {"coding": [{"system": "https://www.nlm.nih.gov/mesh", "code": "D016428", "display": "Journal Article", "userSelected": false}]}, {"coding": [{"system": "https://www.nlm.nih.gov/mesh", "code": "D016449", "display": "Randomized Controlled Trial", "userSelected": false}]}]}, {"type": {"coding": [{"system": "http://hl7.org/fhir/cited-artifact-classification-type", "code": "citation-subset", "display": "Citation subset", "userSelected": false}]}, "classifier": [{"coding": [{"system": "https://www.nlm.nih.gov/bsd/licensee/elements_descriptions.html#citationsubset", "code": "IM", "display": "IM", "userSelected": false}]}]}, {"type": {"coding": [{"system": "http://hl7.org/fhir/cited-artifact-classification-type", "code": "mesh-heading", "display": "MeSH Heading"}]}, "artifactAssessment": [{"reference": "#meshHeading0", "type": "ArtifactAssessment"}]}, {"type": {"coding": [{"system": "http://hl7.org/fhir/cited-artifact-classification-type", "code": "knowledge-artifact-type", "display": "Knowledge Artifact Type", "userSelected": false}]}, "classifier": [{"coding": [{"system": "http://hl7.org/fhir/citation-artifact-classifier", "code": "D016428", "display": "Journal Article", "userSelected": false}]}], "artifactAssessment": [{"display": "Classifier added by Computable Publishing LLC"}]}], "contributorship": {"entry": [{"contributor": {"reference": "#contributor0", "type": "Practitioner", "display": "Delany-Moretlwe S"}, "forenameInitials": "S", "affiliation": [{"display": "Wits Reproductive Health and HIV Institute, University of the Witwatersrand, Johannesburg, South Africa. Electronic address: sdelany@wrhi.ac.za."}]}, {"contributor": {"reference": "#contributor1", "type": "Practitioner", "display": "Hughes JP"}, "forenameInitials": "JP", "affiliation": [{"display": "Statistical Centre for HIV/AIDS Research and Prevention, Vaccine and Infectious Disease Division, Fred Hutchinson Cancer Research Center, Seattle, WA, USA."}]}, {"contributor": {"reference": "#contributor2", "type": "Practitioner", "display": "Bock P"}, "forenameInitials": "P", "affiliation": [{"display": "Desmond Tutu TB Centre, University of Stellenbosch, Stellenbosch, South Africa."}]}, {"contributor": {"reference": "#contributor3", "type": "Practitioner", "display": "Ouma SG"}, "forenameInitials": "SG", "affiliation": [{"display": "Kisumu Clinical Research Site, Centre for Global Health Research, Kenya Medical Research Institute, Kisumu, Kenya."}]}, {"contributor": {"reference": "#contributor4", "type": "Practitioner", "display": "Hunidzarira P"}, "forenameInitials": "P", "affiliation": [{"display": "Clinical Trials Research Centre, University of Zimbabwe, Harare, Zimbabwe."}]}, {"contributor": {"reference": "#contributor5", "type": "Practitioner", "display": "Kalonji D"}, "forenameInitials": "D", "affiliation": [{"display": "HIV and other Infectious Diseases Research Unit, South African Medical Research Council, Durban, South Africa."}]}, {"contributor": {"reference": "#contributor6", "type": "Practitioner", "display": "Kayange N"}, "forenameInitials": "N", "affiliation": [{"display": "Blantyre Clinical Research Site, College of Medicine, University of Malawi, Blantyre, Malawi."}]}, {"contributor": {"reference": "#contributor7", "type": "Practitioner", "display": "Makhema J"}, "forenameInitials": "J", "affiliation": [{"display": "Botswana Harvard AIDS Institute Partnership (BHP), Gaborone, Botswana."}]}, {"contributor": {"reference": "#contributor8", "type": "Practitioner", "display": "Mandima P"}, "forenameInitials": "P", "affiliation": [{"display": "Clinical Trials Research Centre, University of Zimbabwe, Harare, Zimbabwe."}]}, {"contributor": {"reference": "#contributor9", "type": "Practitioner", "display": "Mathew C"}, "forenameInitials": "C", "affiliation": [{"display": "Wits Reproductive Health and HIV Institute, University of the Witwatersrand, Johannesburg, South Africa."}]}, {"contributor": {"reference": "#contributor10", "type": "Practitioner", "display": "Spooner E"}, "forenameInitials": "E", "affiliation": [{"display": "HIV and other Infectious Diseases Research Unit, South African Medical Research Council, Durban, South Africa."}]}, {"contributor": {"reference": "#contributor11", "type": "Practitioner", "display": "Mpendo J"}, "forenameInitials": "J", "affiliation": [{"display": "International AIDS Vaccine Initiative, Uganda Virus Research Institute, Entebbe, Uganda."}]}, {"contributor": {"reference": "#contributor12", "type": "Practitioner", "display": "Mukwekwerere P"}, "forenameInitials": "P", "affiliation": [{"display": "Clinical Trials Research Centre, University of Zimbabwe, Harare, Zimbabwe."}]}, {"contributor": {"reference": "#contributor13", "type": "Practitioner", "display": "Mgodi N"}, "forenameInitials": "N", "affiliation": [{"display": "Clinical Trials Research Centre, University of Zimbabwe, Harare, Zimbabwe."}]}, {"contributor": {"reference": "#contributor14", "type": "Practitioner", "display": "Ntege PN"}, "forenameInitials": "PN", "affiliation": [{"display": "Baylor College of Medicine Children's Foundation Uganda, Kampala, Uganda."}]}, {"contributor": {"reference": "#contributor15", "type": "Practitioner", "display": "Nair G"}, "forenameInitials": "G", "affiliation": [{"display": "Desmond Tutu Health Foundation, University of Cape Town, Cape Town, South Africa."}]}, {"contributor": {"reference": "#contributor16", "type": "Practitioner", "display": "Nakabiito C"}, "forenameInitials": "C", "affiliation": [{"display": "Makerere University-Johns Hopkins University Research Collaboration, Kampala, Uganda."}]}, {"contributor": {"reference": "#contributor17", "type": "Practitioner", "display": "Nuwagaba-Biribonwoha H"}, "forenameInitials": "H", "affiliation": [{"display": "Eswatini Prevention Center, International Center for AIDS Care and Treatment Program at Columbia University Mailman School of Public Health, New York, NY, USA."}]}, {"contributor": {"reference": "#contributor18", "type": "Practitioner", "display": "Panchia R"}, "forenameInitials": "R", "affiliation": [{"display": "Perinatal HIV Research Unit, University of the Witwatersrand, Johannesburg, South Africa."}]}, {"contributor": {"reference": "#contributor19", "type": "Practitioner", "display": "Singh N"}, "forenameInitials": "N", "affiliation": [{"display": "HIV and other Infectious Diseases Research Unit, South African Medical Research Council, Durban, South Africa."}]}, {"contributor": {"reference": "#contributor20", "type": "Practitioner", "display": "Siziba B"}, "forenameInitials": "B", "affiliation": [{"display": "Clinical Trials Research Centre, University of Zimbabwe, Harare, Zimbabwe."}]}, {"contributor": {"reference": "#contributor21", "type": "Practitioner", "display": "Farrior J"}, "forenameInitials": "J", "affiliation": [{"display": "FHI 360, Durham, NC, USA."}]}, {"contributor": {"reference": "#contributor22", "type": "Practitioner", "display": "Rose S"}, "forenameInitials": "S", "affiliation": [{"display": "FHI 360, Durham, NC, USA."}]}, {"contributor": {"reference": "#contributor23", "type": "Practitioner", "display": "Anderson PL"}, "forenameInitials": "PL", "affiliation": [{"display": "Anschutz Medical Campus, University of Colorado, Aurora, CO, USA."}]}, {"contributor": {"reference": "#contributor24", "type": "Practitioner", "display": "Eshleman SH"}, "forenameInitials": "SH", "affiliation": [{"display": "Department of Pathology, Johns Hopkins University School of Medicine, Baltimore, MD, USA."}]}, {"contributor": {"reference": "#contributor25", "type": "Practitioner", "display": "Marzinke MA"}, "forenameInitials": "MA", "affiliation": [{"display": "Department of Pathology, Johns Hopkins University School of Medicine, Baltimore, MD, USA; Department of Medicine, Johns Hopkins University School of Medicine, Baltimore, MD, USA."}]}, {"contributor": {"reference": "#contributor26", "type": "Practitioner", "display": "Hendrix CW"}, "forenameInitials": "CW", "affiliation": [{"display": "Department of Medicine, Johns Hopkins University School of Medicine, Baltimore, MD, USA."}]}, {"contributor": {"reference": "#contributor27", "type": "Practitioner", "display": "Beigel-Orme S"}, "forenameInitials": "S", "affiliation": [{"display": "Statistical Centre for HIV/AIDS Research and Prevention, Vaccine and Infectious Disease Division, Fred Hutchinson Cancer Research Center, Seattle, WA, USA."}]}, {"contributor": {"reference": "#contributor28", "type": "Practitioner", "display": "Hosek S"}, "forenameInitials": "S", "affiliation": [{"display": "Department of Psychiatry, Stroger Hospital of Cook County, Chicago, IL, USA."}]}, {"contributor": {"reference": "#contributor29", "type": "Practitioner", "display": "Tolley E"}, "forenameInitials": "E", "affiliation": [{"display": "FHI 360, Durham, NC, USA."}]}, {"contributor": {"reference": "#contributor30", "type": "Practitioner", "display": "Sista N"}, "forenameInitials": "N", "affiliation": [{"display": "FHI 360, Durham, NC, USA."}]}, {"contributor": {"reference": "#contributor31", "type": "Practitioner", "display": "Adeyeye A"}, "forenameInitials": "A", "affiliation": [{"display": "Division of AIDS, National Institute of Allergy and Infectious Diseases, Rockville, MD, USA."}]}, {"contributor": {"reference": "#contributor32", "type": "Practitioner", "display": "Rooney JF"}, "forenameInitials": "JF", "affiliation": [{"display": "Gilead Sciences, Foster City, CA, USA."}]}, {"contributor": {"reference": "#contributor33", "type": "Practitioner", "display": "Rinehart A"}, "forenameInitials": "A", "affiliation": [{"display": "ViiV Healthcare, Durham, NC, USA."}]}, {"contributor": {"reference": "#contributor34", "type": "Practitioner", "display": "Spreen WR"}, "forenameInitials": "WR", "affiliation": [{"display": "ViiV Healthcare, Durham, NC, USA."}]}, {"contributor": {"reference": "#contributor35", "type": "Practitioner", "display": "Smith K"}, "forenameInitials": "K", "affiliation": [{"display": "ViiV Healthcare, Durham, NC, USA."}]}, {"contributor": {"reference": "#contributor36", "type": "Practitioner", "display": "Hanscom B"}, "forenameInitials": "B", "affiliation": [{"display": "Statistical Centre for HIV/AIDS Research and Prevention, Vaccine and Infectious Disease Division, Fred Hutchinson Cancer Research Center, Seattle, WA, USA."}]}, {"contributor": {"reference": "#contributor37", "type": "Practitioner", "display": "Cohen MS"}, "forenameInitials": "MS", "affiliation": [{"display": "University of North Carolina (UNC) at Chapel Hill, Chapel Hill, NC, USA."}]}, {"contributor": {"reference": "#contributor38", "type": "Practitioner", "display": "Hosseinipour MC"}, "forenameInitials": "MC", "affiliation": [{"display": "University of North Carolina (UNC) at Chapel Hill, Chapel Hill, NC, USA; UNC Project-Malawi, Lilongwe, Malawi."}]}, {"contributor": {"reference": "#contributor39", "type": "Organization", "display": "HPTN 084 study group"}}], "complete": true}}, "lastReviewDate": "2023-03-17", "currentState": [{"coding": [{"system": "http://hl7.org/fhir/citation-status-type", "code": "medline-medline", "display": "Medline Citation Status of MEDLINE"}]}, {"coding": [{"system": "http://hl7.org/fhir/citation-status-type", "code": "pubmed-publication-status-ppublish", "display": "PubMed PublicationStatus of ppublish"}]}], "title": "Delany-Moretlwe 2022 clinical trial", "identifier": [{"type": {"text": "FEvIR Object Identifier", "coding": [{"system": "http://terminology.hl7.org/CodeSystem/v2-0203", "code": "ACSN", "display": "Accession ID"}]}, "system": "urn:ietf:rfc:3986", "value": "https://fevir.net/FOI/153881", "assigner": {"display": "Computable Publishing LLC"}}, {"system": "https://pubmed.ncbi.nlm.nih.gov", "value": "35378077", "assigner": {"display": "NLM"}}], "status": "active", "meta": {"versionId": "5", "lastUpdated": "2025-05-01T20:14:56.787Z"}, "url": "https://fevir.net/resources/Citation/153881", "id": "153881", "publisher": "Computable Publishing LLC", "copyright": "https://creativecommons.org/licenses/by-nc-sa/4.0/", "contact": [{"telecom": [{"system": "email", "value": "support@computablepublishing.com"}]}], "author": [{"name": "Brian S. Alper"}, {"name": "Computable Publishing\u00ae: MEDLINE-to-FEvIR Converter"}], "approvalDate": "2022-05-10", "summary": [{"style": {"coding": [{"system": "http://hl7.org/fhir/citation-summary-style", "code": "comppub", "display": "Computable Publishing"}]}, "text": "Cabotegravir for the prevention of HIV-1 in women: results from HPTN 084, a phase 3, randomised clinical trial [Journal Article]. Contributors: Delany-Moretlwe S, Hughes JP, Bock P, Ouma SG, Hunidzarira P, Kalonji D, Kayange N, Makhema J, Mandima P, Mathew C, Spooner E, Mpendo J, Mukwekwerere P, Mgodi N, Ntege PN, Nair G, Nakabiito C, Nuwagaba-Biribonwoha H, Panchia R, Singh N, Siziba B, Farrior J, Rose S, Anderson PL, Eshleman SH, Marzinke MA, Hendrix CW, Beigel-Orme S, Hosek S, Tolley E, Sista N, Adeyeye A, Rooney JF, Rinehart A, Spreen WR, Smith K, Hanscom B, Cohen MS, Hosseinipour MC, HPTN 084 study group. In: Lancet (London, England), PMID 35378077. Published May 07, 2022. Available at: https://pubmed.ncbi.nlm.nih.gov/35378077/."}], "description": "This Citation Resource is referenced in an example for the EBMonFHIR Implementation Guide."}