{"id": "267499", "url": "https://fevir.net/resources/Citation/267499", "meta": {"profile": ["http://hl7.org/fhir/uv/ebm/StructureDefinition/journal-article-citation"], "versionId": "13", "lastUpdated": "2025-10-13T12:34:35.118Z"}, "title": "26681725 Intranasal Glucagon for Treatment of Insulin-Induced Hypoglycemia in Adults With Type 1 Diabetes: A Randomized Crossover Noninferiority Study.", "author": [{"name": "Computable Publishing\u00ae: MEDLINE-to-FEvIR Converter"}], "status": "active", "contact": [{"telecom": [{"value": "support@computablepublishing.com", "system": "email"}]}], "contained": [{"id": "contributor0", "name": [{"given": ["Michael R"], "family": "Rickels"}], "resourceType": "Practitioner"}, {"id": "contributor1", "name": [{"given": ["Katrina J"], "family": "Ruedy"}], "resourceType": "Practitioner"}, {"id": "contributor2", "name": [{"given": ["Nicole C"], "family": "Foster"}], "resourceType": "Practitioner"}, {"id": "contributor3", "name": [{"given": ["Claude A"], "family": "Pich\u00e9"}], "resourceType": "Practitioner"}, {"id": "contributor4", "name": [{"given": ["H\u00e9l\u00e8ne"], "family": "Dulude"}], "resourceType": "Practitioner"}, {"id": "contributor5", "name": [{"given": ["Jennifer L"], "family": "Sherr"}], "resourceType": "Practitioner"}, {"id": "contributor6", "name": [{"given": ["William V"], "family": "Tamborlane"}], "resourceType": "Practitioner"}, {"id": "contributor7", "name": [{"given": ["Kathleen E"], "family": "Bethin"}], "resourceType": "Practitioner"}, {"id": "contributor8", "name": [{"given": ["Linda A"], "family": "DiMeglio"}], "resourceType": "Practitioner"}, {"id": "contributor9", "name": [{"given": ["R Paul"], "family": "Wadwa"}], "resourceType": "Practitioner"}, {"id": "contributor10", "name": [{"given": ["Andrew J"], "family": "Ahmann"}], "resourceType": "Practitioner"}, {"id": "contributor11", "name": [{"given": ["Michael J"], "family": "Haller"}], "resourceType": "Practitioner"}, {"id": "contributor12", "name": [{"given": ["Brandon M"], "family": "Nathan"}], "resourceType": "Practitioner"}, {"id": "contributor13", "name": [{"given": ["Santica M"], "family": "Marcovina"}], "resourceType": "Practitioner"}, {"id": "contributor14", "name": [{"given": ["Emmanouil"], "family": "Rampakakis"}], "resourceType": "Practitioner"}, {"id": "contributor15", "name": [{"given": ["Linyan"], "family": "Meng"}], "resourceType": "Practitioner"}, {"id": "contributor16", "name": [{"given": ["Roy W"], "family": "Beck"}], "resourceType": "Practitioner"}, {"id": "contributor17", "name": "T1D Exchange Intranasal Glucagon Investigators", "resourceType": "Organization"}, {"id": "meshHeading0", "content": [{"type": {"text": "components (if present) include qualifier codings", "coding": [{"code": "mesh-heading", "system": "http://terminology.hl7.org/CodeSystem/cited-artifact-classification-type", "display": "MeSH heading"}]}, "component": [{"type": {"text": "qualifier"}, "classifier": [{"text": "is not a major topic"}]}], "classifier": [{"coding": [{"code": "D000281", "system": "https://www.nlm.nih.gov/mesh", "display": "Administration, Intranasal", "userSelected": false}]}], "freeToShare": true}, {"type": {"text": "components (if present) include qualifier codings", "coding": [{"code": "mesh-heading", "system": "http://terminology.hl7.org/CodeSystem/cited-artifact-classification-type", "display": "MeSH heading"}]}, "component": [{"type": {"text": "qualifier"}, "classifier": [{"text": "is not a major topic"}]}], "classifier": [{"coding": [{"code": "D000328", "system": "https://www.nlm.nih.gov/mesh", "display": "Adult", "userSelected": false}]}], "freeToShare": true}, {"type": {"text": "components (if present) include qualifier codings", "coding": [{"code": "mesh-heading", "system": "http://terminology.hl7.org/CodeSystem/cited-artifact-classification-type", "display": "MeSH heading"}]}, "component": [{"type": {"text": "qualifier"}, "classifier": [{"text": "is not a major topic"}]}, {"type": {"text": "qualifier"}, "component": [{"type": {"text": "is Major topic"}, "classifier": [{"coding": [{"code": "C49487", "system": "http://ncicb.nci.nih.gov/xml/owl/EVS/Thesaurus.owl", "display": "No"}]}]}], "classifier": [{"coding": [{"code": "Q000187", "system": "https://www.nlm.nih.gov/mesh", "display": "drug effects"}]}]}], "classifier": [{"coding": [{"code": "D001786", "system": "https://www.nlm.nih.gov/mesh", "display": "Blood Glucose", "userSelected": false}]}], "freeToShare": true}, {"type": {"text": "components (if present) include qualifier codings", "coding": [{"code": "mesh-heading", "system": "http://terminology.hl7.org/CodeSystem/cited-artifact-classification-type", "display": "MeSH heading"}]}, "component": [{"type": {"text": "qualifier"}, "classifier": [{"text": "is not a major topic"}]}], "classifier": [{"coding": [{"code": "D018592", "system": "https://www.nlm.nih.gov/mesh", "display": "Cross-Over Studies", "userSelected": false}]}], "freeToShare": true}, {"type": {"text": "components (if present) include qualifier codings", "coding": [{"code": "mesh-heading", "system": "http://terminology.hl7.org/CodeSystem/cited-artifact-classification-type", "display": "MeSH heading"}]}, "component": [{"type": {"text": "qualifier"}, "classifier": [{"text": "is not a major topic"}]}, {"type": {"text": "qualifier"}, "component": [{"type": {"text": "is Major topic"}, "classifier": [{"coding": [{"code": "C49487", "system": "http://ncicb.nci.nih.gov/xml/owl/EVS/Thesaurus.owl", "display": "No"}]}]}], "classifier": [{"coding": [{"code": "Q000097", "system": "https://www.nlm.nih.gov/mesh", "display": "blood"}]}]}, {"type": {"text": "qualifier"}, "component": [{"type": {"text": "is Major topic"}, "classifier": [{"coding": [{"code": "C49488", "system": "http://ncicb.nci.nih.gov/xml/owl/EVS/Thesaurus.owl", "display": "Yes"}]}]}], "classifier": [{"coding": [{"code": "Q000188", "system": "https://www.nlm.nih.gov/mesh", "display": "drug therapy"}]}]}], "classifier": [{"coding": [{"code": "D003922", "system": "https://www.nlm.nih.gov/mesh", "display": "Diabetes Mellitus, Type 1", "userSelected": false}]}], "freeToShare": true}, {"type": {"text": "components (if present) include qualifier codings", "coding": [{"code": "mesh-heading", "system": "http://terminology.hl7.org/CodeSystem/cited-artifact-classification-type", "display": "MeSH heading"}]}, "component": [{"type": {"text": "qualifier"}, "classifier": [{"text": "is not a major topic"}]}], "classifier": [{"coding": [{"code": "D005260", "system": "https://www.nlm.nih.gov/mesh", "display": "Female", "userSelected": false}]}], "freeToShare": true}, {"type": {"text": "components (if present) include qualifier codings", "coding": [{"code": "mesh-heading", "system": "http://terminology.hl7.org/CodeSystem/cited-artifact-classification-type", "display": "MeSH heading"}]}, "component": [{"type": {"text": "qualifier"}, "classifier": [{"text": "is not a major topic"}]}, {"type": {"text": "qualifier"}, "component": [{"type": {"text": "is Major topic"}, "classifier": [{"coding": [{"code": "C49488", "system": "http://ncicb.nci.nih.gov/xml/owl/EVS/Thesaurus.owl", "display": "Yes"}]}]}], "classifier": [{"coding": [{"code": "Q000008", "system": "https://www.nlm.nih.gov/mesh", "display": "administration & dosage"}]}]}], "classifier": [{"coding": [{"code": "D005934", "system": "https://www.nlm.nih.gov/mesh", "display": "Glucagon", "userSelected": false}]}], "freeToShare": true}, {"type": {"text": "components (if present) include qualifier codings", "coding": [{"code": "mesh-heading", "system": "http://terminology.hl7.org/CodeSystem/cited-artifact-classification-type", "display": "MeSH heading"}]}, "component": [{"type": {"text": "qualifier"}, "classifier": [{"text": "is not a major topic"}]}, {"type": {"text": "qualifier"}, "component": [{"type": {"text": "is Major topic"}, "classifier": [{"coding": [{"code": "C49488", "system": "http://ncicb.nci.nih.gov/xml/owl/EVS/Thesaurus.owl", "display": "Yes"}]}]}], "classifier": [{"coding": [{"code": "Q000627", "system": "https://www.nlm.nih.gov/mesh", "display": "therapeutic use"}]}]}], "classifier": [{"coding": [{"code": "D006728", "system": "https://www.nlm.nih.gov/mesh", "display": "Hormones", "userSelected": false}]}], "freeToShare": true}, {"type": {"text": "components (if present) include qualifier codings", "coding": [{"code": "mesh-heading", "system": "http://terminology.hl7.org/CodeSystem/cited-artifact-classification-type", "display": "MeSH heading"}]}, "component": [{"type": {"text": "qualifier"}, "classifier": [{"text": "is not a major topic"}]}], "classifier": [{"coding": [{"code": "D006801", "system": "https://www.nlm.nih.gov/mesh", "display": "Humans", "userSelected": false}]}], "freeToShare": true}, {"type": {"text": "components (if present) include qualifier codings", "coding": [{"code": "mesh-heading", "system": "http://terminology.hl7.org/CodeSystem/cited-artifact-classification-type", "display": "MeSH heading"}]}, "component": [{"type": {"text": "qualifier"}, "classifier": [{"text": "is not a major topic"}]}, {"type": {"text": "qualifier"}, "component": [{"type": {"text": "is Major topic"}, "classifier": [{"coding": [{"code": "C49487", "system": "http://ncicb.nci.nih.gov/xml/owl/EVS/Thesaurus.owl", "display": "No"}]}]}], "classifier": [{"coding": [{"code": "Q000139", "system": "https://www.nlm.nih.gov/mesh", "display": "chemically induced"}]}]}], "classifier": [{"coding": [{"code": "D007003", "system": "https://www.nlm.nih.gov/mesh", "display": "Hypoglycemia", "userSelected": false}]}], "freeToShare": true}, {"type": {"text": "components (if present) include qualifier codings", "coding": [{"code": "mesh-heading", "system": "http://terminology.hl7.org/CodeSystem/cited-artifact-classification-type", "display": "MeSH heading"}]}, "component": [{"type": {"text": "qualifier"}, "classifier": [{"text": "is not a major topic"}]}, {"type": {"text": "qualifier"}, "component": [{"type": {"text": "is Major topic"}, "classifier": [{"coding": [{"code": "C49487", "system": "http://ncicb.nci.nih.gov/xml/owl/EVS/Thesaurus.owl", "display": "No"}]}]}], "classifier": [{"coding": [{"code": "Q000627", "system": "https://www.nlm.nih.gov/mesh", "display": "therapeutic use"}]}]}], "classifier": [{"coding": [{"code": "D007328", "system": "https://www.nlm.nih.gov/mesh", "display": "Insulin", "userSelected": false}]}], "freeToShare": true}, {"type": {"text": "components (if present) include qualifier codings", "coding": [{"code": "mesh-heading", "system": "http://terminology.hl7.org/CodeSystem/cited-artifact-classification-type", "display": "MeSH heading"}]}, "component": [{"type": {"text": "qualifier"}, "classifier": [{"text": "is not a major topic"}]}], "classifier": [{"coding": [{"code": "D008297", "system": "https://www.nlm.nih.gov/mesh", "display": "Male", "userSelected": false}]}], "freeToShare": true}, {"type": {"text": "components (if present) include qualifier codings", "coding": [{"code": "mesh-heading", "system": "http://terminology.hl7.org/CodeSystem/cited-artifact-classification-type", "display": "MeSH heading"}]}, "component": [{"type": {"text": "qualifier"}, "classifier": [{"text": "is not a major topic"}]}], "classifier": [{"coding": [{"code": "D008875", "system": "https://www.nlm.nih.gov/mesh", "display": "Middle Aged", "userSelected": false}]}], "freeToShare": true}, {"type": {"text": "components (if present) include qualifier codings", "coding": [{"code": "mesh-heading", "system": "http://terminology.hl7.org/CodeSystem/cited-artifact-classification-type", "display": "MeSH heading"}]}, "component": [{"type": {"text": "qualifier"}, "classifier": [{"text": "is not a major topic"}]}], "classifier": [{"coding": [{"code": "D055815", "system": "https://www.nlm.nih.gov/mesh", "display": "Young Adult", "userSelected": false}]}], "freeToShare": true}], "resourceType": "ArtifactAssessment", "artifactReference": {"type": "Citation", "reference": "#"}}], "copyright": "https://creativecommons.org/licenses/by-nc-sa/4.0/", "extension": [{"url": "http://hl7.org/fhir/uv/ebm/StructureDefinition/artifact-publication-status", "valueCodeableConcept": {"coding": [{"code": "active", "system": "http://terminology.hl7.org/CodeSystem/cited-artifact-status-type", "display": "Active"}]}}], "publisher": "Computable Publishing LLC", "identifier": [{"type": {"text": "FEvIR Object Identifier", "coding": [{"system": "http://terminology.hl7.org/CodeSystem/v2-0203", "code": "ACSN", "display": "Accession ID"}]}, "value": "267499", "system": "https://fevir.net/FOI", "assigner": {"display": "Computable Publishing LLC"}}, {"value": "26681725", "system": "https://pubmed.ncbi.nlm.nih.gov"}], "statusDate": [{"period": {"end": "2015-07-09"}, "activity": {"coding": [{"code": "pubmed-pubstatus-received", "system": "http://hl7.org/fhir/citation-status-type", "display": "PubMed Pubstatus of Received"}]}}, {"period": {"end": "2015-10-20"}, "activity": {"coding": [{"code": "pubmed-pubstatus-accepted", "system": "http://hl7.org/fhir/citation-status-type", "display": "PubMed Pubstatus of Accepted"}]}}, {"period": {"end": "2015-12-19T06:00:00.000Z"}, "activity": {"coding": [{"code": "pubmed-pubstatus-entrez", "system": "http://hl7.org/fhir/citation-status-type", "display": "PubMed Pubstatus of Entrez"}]}}, {"period": {"end": "2015-12-19T06:00:00.000Z"}, "activity": {"coding": [{"code": "pubmed-pubstatus-pubmed", "system": "http://hl7.org/fhir/citation-status-type", "display": "PubMed Pubstatus of Pubmed"}]}}, {"period": {"end": "2016-07-28T06:00:00.000Z"}, "activity": {"coding": [{"code": "pubmed-pubstatus-medline", "system": "http://hl7.org/fhir/citation-status-type", "display": "PubMed Pubstatus of Medline"}]}}, {"period": {"end": "2017-02-01"}, "activity": {"coding": [{"code": "pubmed-pubstatus-pmc-release", "system": "http://hl7.org/fhir/citation-status-type", "display": "PubMed Pubstatus of PMC release"}]}}], "useContext": [{"code": {"code": "fevir-platform-use", "system": "http://terminology.hl7.org/CodeSystem/citation-classification-type", "display": "FEvIR Platform Use"}, "valueCodeableConcept": {"coding": [{"code": "medline-base", "system": "http://terminology.hl7.org/CodeSystem/citation-artifact-classifier", "display": "Medline Base", "userSelected": false}]}}], "approvalDate": "2016-07-26", "currentState": [{"coding": [{"code": "medline-medline", "system": "http://hl7.org/fhir/citation-status-type", "display": "Medline Citation Status of Medline"}]}, {"coding": [{"code": "pubmed-publication-status-ppublish", "system": "http://hl7.org/fhir/citation-status-type", "display": "PubMed PublicationStatus of ppublish"}]}], "resourceType": "Citation", "citedArtifact": {"title": [{"text": "Intranasal Glucagon for Treatment of Insulin-Induced Hypoglycemia in Adults With Type 1 Diabetes: A Randomized Crossover Noninferiority Study.", "type": [{"coding": [{"code": "primary", "system": "http://terminology.hl7.org/CodeSystem/title-type", "display": "Primary title"}]}], "language": {"coding": [{"system": "urn:ietf:bcp:47", "code": "en", "display": "English"}]}}], "abstract": [{"text": "**OBJECTIVE:** Treatment of severe hypoglycemia with loss of consciousness or seizure outside of the hospital setting is presently limited to intramuscular glucagon requiring reconstitution immediately prior to injection, a process prone to error or omission. A needle-free intranasal glucagon preparation was compared with intramuscular glucagon for treatment of insulin-induced hypoglycemia.\n<AbstractText Label=\"RESEARCH DESIGN AND METHODS\" NlmCategory=\"METHODS\">At eight clinical centers, a randomized crossover noninferiority trial was conducted involving 75 adults with type 1 diabetes (mean age, 33 \u00b1 12 years; median diabetes duration, 18 years) to compare intranasal (3 mg) versus intramuscular (1 mg) glucagon for treatment of hypoglycemia induced by intravenous insulin. Success was defined as an increase in plasma glucose to \u226570 mg/dL or \u226520 mg/dL from the glucose nadir within 30 min after receiving glucagon.\n**RESULTS:** Mean plasma glucose at time of glucagon administration was 48 \u00b1 8 and 49 \u00b1 8 mg/dL at the intranasal and intramuscular visits, respectively. Success criteria were met at all but one intranasal visit and at all intramuscular visits (98.7% vs. 100%; difference 1.3%, upper end of 1-sided 97.5% CI 4.0%). Mean time to success was 16 min for intranasal and 13 min for intramuscular (P &lt; 0.001). Head/facial discomfort was reported during 25% of intranasal and 9% of intramuscular dosing visits; nausea (with or without vomiting) occurred with 35% and 38% of visits, respectively.\n**CONCLUSIONS:** Intranasal glucagon was highly effective in treating insulin-induced hypoglycemia in adults with type 1 diabetes. Although the trial was conducted in a controlled setting, the results are applicable to real-world management of severe hypoglycemia, which occurs owing to excessive therapeutic insulin relative to the impaired or absent endogenous glucagon response.", "type": {"coding": [{"code": "primary-human-use", "system": "http://terminology.hl7.org/CodeSystem/cited-artifact-abstract-type", "display": "Primary human use"}]}, "copyright": "\u00a9 2016 by the American Diabetes Association. Readers may use this article as long as the work is properly cited, the use is educational and not for profit, and the work is not altered."}], "relatesTo": [{"type": "cites", "citation": "Cryer PE. The barrier of hypoglycemia in diabetes. Diabetes 2008;57:3169\u20133176", "classifier": [{"coding": [{"code": "D016428", "system": "http://hl7.org/fhir/citation-artifact-classifier", "display": "Journal Article"}]}], "targetReference": {"type": "Citation", "reference": "https://pubmed.ncbi.nlm.nih.gov/19033403/", "identifier": {"value": "19033403", "system": "https://pubmed.ncbi.nlm.nih.gov", "assigner": {"display": "NLM"}}}}, {"type": "cites", "citation": "Brodows RG, Williams C, Amatruda JM. Treatment of insulin reactions in diabetics. JAMA 1984;252:3378\u20133381", "classifier": [{"coding": [{"code": "D016428", "system": "http://hl7.org/fhir/citation-artifact-classifier", "display": "Journal Article"}]}], "targetReference": {"type": "Citation", "reference": "https://pubmed.ncbi.nlm.nih.gov/6389915/", "identifier": {"value": "6389915", "system": "https://pubmed.ncbi.nlm.nih.gov", "assigner": {"display": "NLM"}}}}, {"type": "cites", "citation": "Slama G, Traynard PY, Desplanque N, et al. . The search for an optimized treatment of hypoglycemia. Carbohydrates in tablets, solutin, or gel for the correction of insulin reactions. Arch Intern Med 1990;150:589\u2013593", "classifier": [{"coding": [{"code": "D016428", "system": "http://hl7.org/fhir/citation-artifact-classifier", "display": "Journal Article"}]}], "targetReference": {"type": "Citation", "reference": "https://pubmed.ncbi.nlm.nih.gov/2310277/", "identifier": {"value": "2310277", "system": "https://pubmed.ncbi.nlm.nih.gov", "assigner": {"display": "NLM"}}}}, {"type": "cites", "citation": "Gold AE, MacLeod KM, Deary IJ, Frier BM. Hypoglycemia-induced cognitive dysfunction in diabetes mellitus: effect of hypoglycemia unawareness. Physiol Behav 1995;58:501\u2013511", "classifier": [{"coding": [{"code": "D016428", "system": "http://hl7.org/fhir/citation-artifact-classifier", "display": "Journal Article"}]}], "targetReference": {"type": "Citation", "reference": "https://pubmed.ncbi.nlm.nih.gov/8587958/", "identifier": {"value": "8587958", "system": "https://pubmed.ncbi.nlm.nih.gov", "assigner": {"display": "NLM"}}}}, {"type": "cites", "citation": "Whitmer RA, Karter AJ, Yaffe K, Quesenberry CP Jr, Selby JV. Hypoglycemic episodes and risk of dementia in older patients with type 2 diabetes mellitus. JAMA 2009;301:1565\u20131572", "classifier": [{"coding": [{"code": "D016428", "system": "http://hl7.org/fhir/citation-artifact-classifier", "display": "Journal Article"}]}], "targetReference": {"type": "Citation", "reference": "https://pubmed.ncbi.nlm.nih.gov/19366776/", "identifier": {"value": "19366776", "system": "https://pubmed.ncbi.nlm.nih.gov", "assigner": {"display": "NLM"}}}}, {"type": "cites", "citation": "McCoy RG, Van Houten HK, Ziegenfuss JY, Shah ND, Wermers RA, Smith SA. Increased mortality of patients with diabetes reporting severe hypoglycemia. Diabetes Care 2012;35:1897\u20131901", "classifier": [{"coding": [{"code": "D016428", "system": "http://hl7.org/fhir/citation-artifact-classifier", "display": "Journal Article"}]}], "targetReference": {"type": "Citation", "reference": "https://pubmed.ncbi.nlm.nih.gov/22699297/", "identifier": {"value": "22699297", "system": "https://pubmed.ncbi.nlm.nih.gov", "assigner": {"display": "NLM"}}}}, {"type": "cites", "citation": "Weinstock RS, Xing D, Maahs DM, et al. .; T1D Exchange Clinic Network . Severe hypoglycemia and diabetic ketoacidosis in adults with type 1 diabetes: results from the T1D Exchange clinic registry. J Clin Endocrinol Metab 2013;98:3411\u20133419", "classifier": [{"coding": [{"code": "D016428", "system": "http://hl7.org/fhir/citation-artifact-classifier", "display": "Journal Article"}]}], "targetReference": {"type": "Citation", "reference": "https://pubmed.ncbi.nlm.nih.gov/23760624/", "identifier": {"value": "23760624", "system": "https://pubmed.ncbi.nlm.nih.gov", "assigner": {"display": "NLM"}}}}, {"type": "cites", "citation": "Cariou B, Li\u00e8vre M, Huet D, Charbonnel B, Sert C, Gouet D. Hypoglycemia among 3048 insulin-treated patients in real life: frequency and predictive factors: results from the prospective DIALOG study. Presented at European Association for the Study of Diabetes (Abstract). Barcelona, Spain, EASD, 2013. Available from http://www.easdvirtualmeeting.org/resources/hypoglycaemia-among-3048-insulin-treated-patients-in-real-life-frequency-and-predictive-factors-results-from-the-prospective-dialog-study--2. Accessed 3 December 2015"}, {"type": "cites", "citation": "Khunti K, Alsifri S, Aronson R, et al. . Self-reported hypoglycemia: A global study of 24 countries with 27,585 insulin-treated patients with diabetes: the HAT study. Diabetes Res Clin Pract 2014;106:S105\u2013S106"}, {"type": "cites", "citation": "Gerich JE, Langlois M, Noacco C, Karam JH, Forsham PH. Lack of glucagon response to hypoglycemia in diabetes: evidence for an intrinsic pancreatic alpha cell defect. Science 1973;182:171\u2013173", "classifier": [{"coding": [{"code": "D016428", "system": "http://hl7.org/fhir/citation-artifact-classifier", "display": "Journal Article"}]}], "targetReference": {"type": "Citation", "reference": "https://pubmed.ncbi.nlm.nih.gov/4581053/", "identifier": {"value": "4581053", "system": "https://pubmed.ncbi.nlm.nih.gov", "assigner": {"display": "NLM"}}}}, {"type": "cites", "citation": "Holstein A, Hammer C, Plaschke A, et al. . Hormonal counterregulation during severe hypoglycaemia under everyday conditions in patients with type 1 and insulin-treated type 2 diabetes mellitus. Exp Clin Endocrinol Diabetes 2004;112:429\u2013434", "classifier": [{"coding": [{"code": "D016428", "system": "http://hl7.org/fhir/citation-artifact-classifier", "display": "Journal Article"}]}], "targetReference": {"type": "Citation", "reference": "https://pubmed.ncbi.nlm.nih.gov/15372362/", "identifier": {"value": "15372362", "system": "https://pubmed.ncbi.nlm.nih.gov", "assigner": {"display": "NLM"}}}}, {"type": "cites", "citation": "Harrism G, Diment A, Sulway M, Wilkinson M. Glucagon administration - underevaluated and undertaught. Pract Diabetes Int 2001;18:22\u201325"}, {"type": "cites", "citation": "Pontiroli AE, Alberetto M, Pozza G. Metabolic effects of intranasally administered glucagon: comparison with intramuscular and intravenous injection. Acta Diabetol Lat 1985;22:103\u2013110", "classifier": [{"coding": [{"code": "D016428", "system": "http://hl7.org/fhir/citation-artifact-classifier", "display": "Journal Article"}]}], "targetReference": {"type": "Citation", "reference": "https://pubmed.ncbi.nlm.nih.gov/3907228/", "identifier": {"value": "3907228", "system": "https://pubmed.ncbi.nlm.nih.gov", "assigner": {"display": "NLM"}}}}, {"type": "cites", "citation": "Freychet L, Rizkalla SW, Desplanque N, et al. . Effect of intranasal glucagon on blood glucose levels in healthy subjects and hypoglycaemic patients with insulin-dependent diabetes. Lancet 1988;1:1364\u20131366", "classifier": [{"coding": [{"code": "D016428", "system": "http://hl7.org/fhir/citation-artifact-classifier", "display": "Journal Article"}]}], "targetReference": {"type": "Citation", "reference": "https://pubmed.ncbi.nlm.nih.gov/2898045/", "identifier": {"value": "2898045", "system": "https://pubmed.ncbi.nlm.nih.gov", "assigner": {"display": "NLM"}}}}, {"type": "cites", "citation": "Pontiroli AE, Calderara A, Pajetta E, Alberetto M, Pozza G. Intranasal glucagon as remedy for hypoglycemia. Studies in healthy subjects and type I diabetic patients. Diabetes Care 1989;12:604\u2013608", "classifier": [{"coding": [{"code": "D016428", "system": "http://hl7.org/fhir/citation-artifact-classifier", "display": "Journal Article"}]}], "targetReference": {"type": "Citation", "reference": "https://pubmed.ncbi.nlm.nih.gov/2676430/", "identifier": {"value": "2676430", "system": "https://pubmed.ncbi.nlm.nih.gov", "assigner": {"display": "NLM"}}}}, {"type": "cites", "citation": "Slama G, Alamowitch C, Desplanque N, Letanoux M, Zirinis P. A new non-invasive method for treating insulin-reaction: intranasal lyophylized glucagon. Diabetologia 1990;33:671\u2013674", "classifier": [{"coding": [{"code": "D016428", "system": "http://hl7.org/fhir/citation-artifact-classifier", "display": "Journal Article"}]}], "targetReference": {"type": "Citation", "reference": "https://pubmed.ncbi.nlm.nih.gov/2076798/", "identifier": {"value": "2076798", "system": "https://pubmed.ncbi.nlm.nih.gov", "assigner": {"display": "NLM"}}}}, {"type": "cites", "citation": "Rosenfalck AM, Bendtson I, J\u00f8rgensen S, Binder C. Nasal glucagon in the treatment of hypoglycaemia in type 1 (insulin-dependent) diabetic patients. Diabetes Res Clin Pract 1992;17:43\u201350", "classifier": [{"coding": [{"code": "D016428", "system": "http://hl7.org/fhir/citation-artifact-classifier", "display": "Journal Article"}]}], "targetReference": {"type": "Citation", "reference": "https://pubmed.ncbi.nlm.nih.gov/1511660/", "identifier": {"value": "1511660", "system": "https://pubmed.ncbi.nlm.nih.gov", "assigner": {"display": "NLM"}}}}, {"type": "cites", "citation": "Beck RW, Tamborlane WV, Bergenstal RM, Miller KM, DuBose SN, Hall CA; T1D Exchange Clinic Network . The T1D Exchange clinic registry. J Clin Endocrinol Metab 2012;97:4383\u20134389", "classifier": [{"coding": [{"code": "D016428", "system": "http://hl7.org/fhir/citation-artifact-classifier", "display": "Journal Article"}]}], "targetReference": {"type": "Citation", "reference": "https://pubmed.ncbi.nlm.nih.gov/22996145/", "identifier": {"value": "22996145", "system": "https://pubmed.ncbi.nlm.nih.gov", "assigner": {"display": "NLM"}}}}, {"type": "cites", "citation": "Novo Nordisk. GlucaGen prescribing information [Internet]. Available from http://www.novonordiskmedicalinformation.com//file_upload/GlucaGen%20HypoKit%20Prescribing%20Information,April%202014%20.pdf. Accessed 9 September 2015"}, {"type": "cites", "citation": "Locemia Solutions ULC. Safety and efficacy of a novel glucagon formulation in type 1 diabetic patients following insulin-induced hypoglycemia (AMG102) [Internet]. Available from https://clinicaltrials.gov/ct2/show/study/NCT01556594?term=amg+medical&rank=1. Accessed 23 June 2015"}, {"type": "cites", "citation": "Hepburn DA, Deary IJ, Frier BM, Patrick AW, Quinn JD, Fisher BM. Symptoms of acute insulin-induced hypoglycemia in humans with and without IDDM. Factor-analysis approach. Diabetes Care 1991;14:949\u2013957", "classifier": [{"coding": [{"code": "D016428", "system": "http://hl7.org/fhir/citation-artifact-classifier", "display": "Journal Article"}]}], "targetReference": {"type": "Citation", "reference": "https://pubmed.ncbi.nlm.nih.gov/1797507/", "identifier": {"value": "1797507", "system": "https://pubmed.ncbi.nlm.nih.gov", "assigner": {"display": "NLM"}}}}, {"type": "cites", "citation": "Yale JF, Piche C, Lafontaine M, et al. Needlefree nasal delivery of glucagon is superior to injectable delivery in simulated hypoglycaemia rescue. Poster presented at European Association for the Study of Diabetes (Abstract). Stockholm, Sweden, September 2015. Available from http://www.easdvirtualmeeting.org/resources/needle-free-nasal-delivery-of-glucagon-is-superior-to-injectable-delivery-in-simulated-hypoglycaemia-rescue--3. Accessed 3 December 2015"}, {"type": "cites", "citation": "Pacchioni M, Orena C, Panizza P, Cucchi E, Del Maschio A, Pontiroli AE. The hypotonic effect of intranasal and intravenous glucagon in gastrointestinal radiology. Abdom Imaging 1995;20:44\u201346", "classifier": [{"coding": [{"code": "D016428", "system": "http://hl7.org/fhir/citation-artifact-classifier", "display": "Journal Article"}]}], "targetReference": {"type": "Citation", "reference": "https://pubmed.ncbi.nlm.nih.gov/7894298/", "identifier": {"value": "7894298", "system": "https://pubmed.ncbi.nlm.nih.gov", "assigner": {"display": "NLM"}}}}, {"type": "comment-in", "citation": "Diabetes Care. 2016 Oct;39(10):e192. doi: 10.2337/dc16-0955.", "classifier": [{"coding": [{"code": "D016420", "system": "https://www.nlm.nih.gov/mesh", "display": "Comment", "userSelected": false}]}], "targetReference": {"reference": "https://pubmed.ncbi.nlm.nih.gov/27660134/", "identifier": {"value": "27660134", "system": "https://pubmed.ncbi.nlm.nih.gov", "assigner": {"display": "NLM"}}}}, {"type": "comment-in", "citation": "Diabetes Care. 2016 Oct;39(10):e193-4. doi: 10.2337/dci16-0025.", "classifier": [{"coding": [{"code": "D016420", "system": "https://www.nlm.nih.gov/mesh", "display": "Comment", "userSelected": false}]}], "targetReference": {"reference": "https://pubmed.ncbi.nlm.nih.gov/27660135/", "identifier": {"value": "27660135", "system": "https://pubmed.ncbi.nlm.nih.gov", "assigner": {"display": "NLM"}}}}], "identifier": [{"value": "26681725", "system": "https://pubmed.ncbi.nlm.nih.gov"}, {"value": "PMC4722945", "system": "https://www.ncbi.nlm.nih.gov/pmc/"}, {"value": "10.2337/dc15-1498", "system": "https://doi.org"}, {"type": {"text": "pii", "coding": [{"system": "http://terminology.hl7.org/CodeSystem/v2-0203", "code": "ACSN", "display": "Accession ID"}]}, "value": "dc15-1498"}], "webLocation": [{"url": "https://pubmed.ncbi.nlm.nih.gov/26681725/", "classifier": [{"coding": [{"code": "abstract", "system": "http://terminology.hl7.org/CodeSystem/artifact-url-classifier", "display": "Abstract"}]}]}, {"url": "https://doi.org/10.2337/dc15-1498", "classifier": [{"coding": [{"code": "doi-based", "system": "http://terminology.hl7.org/CodeSystem/artifact-url-classifier", "display": "DOI Based"}]}]}], "classification": [{"type": {"coding": [{"code": "publishing-model", "system": "http://terminology.hl7.org/CodeSystem/cited-artifact-classification-type", "display": "Publishing Model", "userSelected": false}]}, "classifier": [{"coding": [{"code": "Print-Electronic", "system": "http://terminology.hl7.org/CodeSystem/citation-artifact-classifier", "display": "Print Electronic", "userSelected": false}]}]}, {"type": {"coding": [{"code": "chemical", "system": "http://terminology.hl7.org/CodeSystem/cited-artifact-classification-type", "display": "Chemical", "userSelected": false}]}, "classifier": [{"coding": [{"code": "D001786", "system": "https://www.nlm.nih.gov/mesh", "display": "Blood Glucose", "userSelected": false}]}, {"coding": [{"code": "D006728", "system": "https://www.nlm.nih.gov/mesh", "display": "Hormones", "userSelected": false}]}, {"coding": [{"code": "D007328", "system": "https://www.nlm.nih.gov/mesh", "display": "Insulin", "userSelected": false}]}, {"coding": [{"code": "9007-92-5", "system": "https://www.cas.org/support/documentation/chemical-substances", "userSelected": false}, {"code": "D005934", "system": "https://www.nlm.nih.gov/mesh", "display": "Glucagon", "userSelected": false}]}]}, {"type": {"coding": [{"code": "mesh-heading", "system": "http://terminology.hl7.org/CodeSystem/cited-artifact-classification-type", "display": "MeSH heading"}]}, "artifactAssessment": [{"type": "ArtifactAssessment", "reference": "#meshHeading0"}]}, {"type": {"coding": [{"code": "publication-type", "system": "http://terminology.hl7.org/CodeSystem/cited-artifact-classification-type", "display": "Publication type"}]}, "classifier": [{"coding": [{"code": "D016428", "system": "https://www.nlm.nih.gov/mesh", "display": "Journal Article", "userSelected": false}]}, {"coding": [{"code": "D016448", "system": "https://www.nlm.nih.gov/mesh", "display": "Multicenter Study", "userSelected": false}]}, {"coding": [{"code": "D016449", "system": "https://www.nlm.nih.gov/mesh", "display": "Randomized Controlled Trial", "userSelected": false}]}, {"coding": [{"code": "D052061", "system": "https://www.nlm.nih.gov/mesh", "display": "Research Support, N.I.H., Extramural", "userSelected": false}]}, {"coding": [{"code": "D013485", "system": "https://www.nlm.nih.gov/mesh", "display": "Research Support, Non-U.S. Gov't", "userSelected": false}]}]}, {"type": {"coding": [{"code": "knowledge-artifact-type", "system": "http://terminology.hl7.org/CodeSystem/cited-artifact-classification-type", "display": "Knowledge Artifact Type", "userSelected": false}]}, "classifier": [{"coding": [{"code": "D016428", "system": "http://terminology.hl7.org/CodeSystem/citation-artifact-classifier", "display": "Journal Article", "userSelected": false}]}], "artifactAssessment": [{"display": "Classifier added by Computable Publishing LLC"}]}, {"type": {"coding": [{"code": "citation-subset", "system": "http://terminology.hl7.org/CodeSystem/cited-artifact-classification-type", "display": "Citation subset", "userSelected": false}]}, "classifier": [{"coding": [{"code": "IM", "system": "https://www.nlm.nih.gov/bsd/licensee/elements_descriptions.html#citationsubset", "display": "IM", "userSelected": false}]}]}], "contributorship": {"entry": [{"affiliation": [{"display": "University of Pennsylvania Perelman School of Medicine, Philadelphia, PA."}], "contributor": {"type": "Practitioner", "display": "Rickels MR", "reference": "#contributor0"}, "forenameInitials": "MR"}, {"affiliation": [{"display": "Jaeb Center for Health Research, Tampa, FL."}], "contributor": {"type": "Practitioner", "display": "Ruedy KJ", "reference": "#contributor1"}, "forenameInitials": "KJ"}, {"affiliation": [{"display": "Jaeb Center for Health Research, Tampa, FL t1dstats@jaeb.org."}], "contributor": {"type": "Practitioner", "display": "Foster NC", "reference": "#contributor2"}, "forenameInitials": "NC"}, {"affiliation": [{"display": "Locemia Solutions ULC, Montreal, QC, Canada."}], "contributor": {"type": "Practitioner", "display": "Pich\u00e9 CA", "reference": "#contributor3"}, "forenameInitials": "CA"}, {"affiliation": [{"display": "Locemia Solutions ULC, Montreal, QC, Canada."}], "contributor": {"type": "Practitioner", "display": "Dulude H", "reference": "#contributor4"}, "forenameInitials": "H"}, {"affiliation": [{"display": "Yale School of Medicine, New Haven, CT."}], "contributor": {"type": "Practitioner", "display": "Sherr JL", "reference": "#contributor5"}, "forenameInitials": "JL"}, {"affiliation": [{"display": "Yale School of Medicine, New Haven, CT."}], "contributor": {"type": "Practitioner", "display": "Tamborlane WV", "reference": "#contributor6"}, "forenameInitials": "WV"}, {"affiliation": [{"display": "Jacobs School of Medicine and Biomedical Sciences, University at Buffalo, The State University of New York, Buffalo, NY."}], "contributor": {"type": "Practitioner", "display": "Bethin KE", "reference": "#contributor7"}, "forenameInitials": "KE"}, {"affiliation": [{"display": "Indiana University School of Medicine, Indianapolis, IN."}], "contributor": {"type": "Practitioner", "display": "DiMeglio LA", "reference": "#contributor8"}, "forenameInitials": "LA"}, {"affiliation": [{"display": "Barbara Davis Center for Childhood Diabetes, Aurora, CO."}], "contributor": {"type": "Practitioner", "display": "Wadwa RP", "reference": "#contributor9"}, "forenameInitials": "RP"}, {"affiliation": [{"display": "Harold Schnitzer Diabetes Health Center, Oregon Health & Science University, Portland, OR."}], "contributor": {"type": "Practitioner", "display": "Ahmann AJ", "reference": "#contributor10"}, "forenameInitials": "AJ"}, {"affiliation": [{"display": "University of Florida, Gainesville, FL."}], "contributor": {"type": "Practitioner", "display": "Haller MJ", "reference": "#contributor11"}, "forenameInitials": "MJ"}, {"affiliation": [{"display": "University of Minnesota, Minneapolis, MN."}], "contributor": {"type": "Practitioner", "display": "Nathan BM", "reference": "#contributor12"}, "forenameInitials": "BM"}, {"affiliation": [{"display": "Northwest Lipid Metabolism and Diabetes Research Laboratories, Seattle, WA."}], "contributor": {"type": "Practitioner", "display": "Marcovina SM", "reference": "#contributor13"}, "forenameInitials": "SM"}, {"affiliation": [{"display": "JSS Medical Research, St. Laurent, QC, Canada."}], "contributor": {"type": "Practitioner", "display": "Rampakakis E", "reference": "#contributor14"}, "forenameInitials": "E"}, {"affiliation": [{"display": "JSS Medical Research, St. Laurent, QC, Canada."}], "contributor": {"type": "Practitioner", "display": "Meng L", "reference": "#contributor15"}, "forenameInitials": "L"}, {"affiliation": [{"display": "Jaeb Center for Health Research, Tampa, FL."}], "contributor": {"type": "Practitioner", "display": "Beck RW", "reference": "#contributor16"}, "forenameInitials": "RW"}, {"contributor": {"type": "Organization", "display": "T1D Exchange Intranasal Glucagon Investigators", "reference": "#contributor17"}}], "complete": true}, "publicationForm": [{"issue": "2", "volume": "39", "pageString": "264-70", "articleDate": "2016-02", "citedMedium": {"coding": [{"code": "internet", "system": "http://terminology.hl7.org/CodeSystem/cited-medium", "display": "Internet"}]}, "publishedIn": {"type": {"coding": [{"code": "D020492", "system": "http://terminology.hl7.org/CodeSystem/published-in-type", "display": "Periodical"}]}, "title": "Diabetes care", "identifier": [{"type": {"text": "Electronic ISSN Type", "coding": [{"code": "Electronic", "system": "https://www.nlm.nih.gov/bsd/licensee/elements_descriptions.html#issn", "display": "Electronic"}]}, "value": "1935-5548", "system": "https://portal.issn.org"}, {"type": {"text": "ISOAbbreviation", "coding": [{"system": "http://terminology.hl7.org/CodeSystem/v2-0203", "code": "XX", "display": "Organization identifier"}]}, "value": "Diabetes Care", "system": "https://www.issn.org/services/online-services/access-to-the-ltwa/"}, {"type": {"text": "ISSN Linking", "coding": [{"system": "http://terminology.hl7.org/CodeSystem/v2-0203", "code": "XX", "display": "Organization identifier"}]}, "value": "0149-5992", "system": "https://www.issn.org/understanding-the-issn/assignment-rules/the-issn-l-for-publications-on-multiple-media/"}, {"type": {"text": "Medline Title Abbreviation", "coding": [{"system": "http://terminology.hl7.org/CodeSystem/v2-0203", "code": "XX", "display": "Organization identifier"}]}, "value": "Diabetes Care", "system": "https://www.nlm.nih.gov/tsd/cataloging/contructitleabbre.html"}, {"type": {"text": "NLM Unique ID", "coding": [{"system": "http://terminology.hl7.org/CodeSystem/v2-0203", "code": "XX", "display": "Organization identifier"}]}, "value": "7805975", "system": "https://locatorplus.gov/cgi-bin/Pwebrecon.cgi?DB=local"}], "publisherLocation": "United States"}}, {"articleDate": "2015-12-17", "citedMedium": {"coding": [{"code": "internet-without-issue", "system": "http://terminology.hl7.org/CodeSystem/cited-medium", "display": "Internet without issue"}]}}]}, "classification": [{"type": {"coding": [{"code": "citation-source", "system": "http://terminology.hl7.org/CodeSystem/citation-classification-type", "display": "Citation Source"}]}, "classifier": [{"text": "MEDLINE"}]}, {"type": {"coding": [{"code": "medline-owner", "system": "http://terminology.hl7.org/CodeSystem/citation-classification-type", "display": "MEDLINE Citation Owner"}]}, "classifier": [{"coding": [{"code": "NLM", "system": "https://www.nlm.nih.gov/bsd/licensee/elements_descriptions.html#owner_value", "display": "National Library of Medicine, Index Section", "userSelected": false}]}]}], "lastReviewDate": "2022-03-30", "description": "This Citation Resource is referenced in an example for the EBMonFHIR Implementation Guide."}