{"id": "267496", "url": "https://fevir.net/resources/Citation/267496", "meta": {"profile": ["http://hl7.org/fhir/uv/ebm/StructureDefinition/journal-article-citation"], "versionId": "13", "lastUpdated": "2025-10-13T12:34:35.118Z"}, "title": "15855602 Defining and reporting hypoglycemia in diabetes: a report from the American Diabetes Association Workgroup on Hypoglycemia.", "author": [{"name": "Computable Publishing\u00ae: MEDLINE-to-FEvIR Converter"}], "status": "active", "contact": [{"telecom": [{"value": "support@computablepublishing.com", "system": "email"}]}], "contained": [{"id": "contributor0", "name": "Workgroup on Hypoglycemia, American Diabetes Association", "resourceType": "Organization"}, {"id": "meshHeading0", "content": [{"type": {"text": "components (if present) include qualifier codings", "coding": [{"code": "mesh-heading", "system": "http://terminology.hl7.org/CodeSystem/cited-artifact-classification-type", "display": "MeSH heading"}]}, "component": [{"type": {"text": "qualifier"}, "classifier": [{"text": "is Major topic"}]}], "classifier": [{"coding": [{"code": "D016907", "system": "https://www.nlm.nih.gov/mesh", "display": "Adverse Drug Reaction Reporting Systems", "userSelected": false}]}], "freeToShare": true}, {"type": {"text": "components (if present) include qualifier codings", "coding": [{"code": "mesh-heading", "system": "http://terminology.hl7.org/CodeSystem/cited-artifact-classification-type", "display": "MeSH heading"}]}, "component": [{"type": {"text": "qualifier"}, "classifier": [{"text": "is not a major topic"}]}, {"type": {"text": "qualifier"}, "component": [{"type": {"text": "is Major topic"}, "classifier": [{"coding": [{"code": "C49488", "system": "http://ncicb.nci.nih.gov/xml/owl/EVS/Thesaurus.owl", "display": "Yes"}]}]}], "classifier": [{"coding": [{"code": "Q000188", "system": "https://www.nlm.nih.gov/mesh", "display": "drug therapy"}]}]}], "classifier": [{"coding": [{"code": "D003922", "system": "https://www.nlm.nih.gov/mesh", "display": "Diabetes Mellitus, Type 1", "userSelected": false}]}], "freeToShare": true}, {"type": {"text": "components (if present) include qualifier codings", "coding": [{"code": "mesh-heading", "system": "http://terminology.hl7.org/CodeSystem/cited-artifact-classification-type", "display": "MeSH heading"}]}, "component": [{"type": {"text": "qualifier"}, "classifier": [{"text": "is not a major topic"}]}, {"type": {"text": "qualifier"}, "component": [{"type": {"text": "is Major topic"}, "classifier": [{"coding": [{"code": "C49487", "system": "http://ncicb.nci.nih.gov/xml/owl/EVS/Thesaurus.owl", "display": "No"}]}]}], "classifier": [{"coding": [{"code": "Q000188", "system": "https://www.nlm.nih.gov/mesh", "display": "drug therapy"}]}]}], "classifier": [{"coding": [{"code": "D003924", "system": "https://www.nlm.nih.gov/mesh", "display": "Diabetes Mellitus, Type 2", "userSelected": false}]}], "freeToShare": true}, {"type": {"text": "components (if present) include qualifier codings", "coding": [{"code": "mesh-heading", "system": "http://terminology.hl7.org/CodeSystem/cited-artifact-classification-type", "display": "MeSH heading"}]}, "component": [{"type": {"text": "qualifier"}, "classifier": [{"text": "is not a major topic"}]}], "classifier": [{"coding": [{"code": "D006801", "system": "https://www.nlm.nih.gov/mesh", "display": "Humans", "userSelected": false}]}], "freeToShare": true}, {"type": {"text": "components (if present) include qualifier codings", "coding": [{"code": "mesh-heading", "system": "http://terminology.hl7.org/CodeSystem/cited-artifact-classification-type", "display": "MeSH heading"}]}, "component": [{"type": {"text": "qualifier"}, "classifier": [{"text": "is not a major topic"}]}, {"type": {"text": "qualifier"}, "component": [{"type": {"text": "is Major topic"}, "classifier": [{"coding": [{"code": "C49487", "system": "http://ncicb.nci.nih.gov/xml/owl/EVS/Thesaurus.owl", "display": "No"}]}]}], "classifier": [{"coding": [{"code": "Q000139", "system": "https://www.nlm.nih.gov/mesh", "display": "chemically induced"}]}]}, {"type": {"text": "qualifier"}, "component": [{"type": {"text": "is Major topic"}, "classifier": [{"coding": [{"code": "C49488", "system": "http://ncicb.nci.nih.gov/xml/owl/EVS/Thesaurus.owl", "display": "Yes"}]}]}], "classifier": [{"coding": [{"code": "Q000175", "system": "https://www.nlm.nih.gov/mesh", "display": "diagnosis"}]}]}], "classifier": [{"coding": [{"code": "D007003", "system": "https://www.nlm.nih.gov/mesh", "display": "Hypoglycemia", "userSelected": false}]}], "freeToShare": true}, {"type": {"text": "components (if present) include qualifier codings", "coding": [{"code": "mesh-heading", "system": "http://terminology.hl7.org/CodeSystem/cited-artifact-classification-type", "display": "MeSH heading"}]}, "component": [{"type": {"text": "qualifier"}, "classifier": [{"text": "is not a major topic"}]}, {"type": {"text": "qualifier"}, "component": [{"type": {"text": "is Major topic"}, "classifier": [{"coding": [{"code": "C49488", "system": "http://ncicb.nci.nih.gov/xml/owl/EVS/Thesaurus.owl", "display": "Yes"}]}]}], "classifier": [{"coding": [{"code": "Q000009", "system": "https://www.nlm.nih.gov/mesh", "display": "adverse effects"}]}]}], "classifier": [{"coding": [{"code": "D007004", "system": "https://www.nlm.nih.gov/mesh", "display": "Hypoglycemic Agents", "userSelected": false}]}], "freeToShare": true}, {"type": {"text": "components (if present) include qualifier codings", "coding": [{"code": "mesh-heading", "system": "http://terminology.hl7.org/CodeSystem/cited-artifact-classification-type", "display": "MeSH heading"}]}, "component": [{"type": {"text": "qualifier"}, "classifier": [{"text": "is not a major topic"}]}, {"type": {"text": "qualifier"}, "component": [{"type": {"text": "is Major topic"}, "classifier": [{"coding": [{"code": "C49488", "system": "http://ncicb.nci.nih.gov/xml/owl/EVS/Thesaurus.owl", "display": "Yes"}]}]}], "classifier": [{"coding": [{"code": "Q000009", "system": "https://www.nlm.nih.gov/mesh", "display": "adverse effects"}]}]}], "classifier": [{"coding": [{"code": "D007328", "system": "https://www.nlm.nih.gov/mesh", "display": "Insulin", "userSelected": false}]}], "freeToShare": true}], "resourceType": "ArtifactAssessment", "artifactReference": {"type": "Citation", "reference": "#"}}], "copyright": "https://creativecommons.org/licenses/by-nc-sa/4.0/", "extension": [{"url": "http://hl7.org/fhir/uv/ebm/StructureDefinition/artifact-publication-status", "valueCodeableConcept": {"coding": [{"code": "active", "system": "http://terminology.hl7.org/CodeSystem/cited-artifact-status-type", "display": "Active"}]}}], "publisher": "Computable Publishing LLC", "identifier": [{"type": {"text": "FEvIR Object Identifier", "coding": [{"system": "http://terminology.hl7.org/CodeSystem/v2-0203", "code": "ACSN", "display": "Accession ID"}]}, "value": "267496", "system": "https://fevir.net/FOI", "assigner": {"display": "Computable Publishing LLC"}}, {"value": "15855602", "system": "https://pubmed.ncbi.nlm.nih.gov"}], "statusDate": [{"period": {"end": "2005-04-28T09:00:00.000Z"}, "activity": {"coding": [{"code": "pubmed-pubstatus-pubmed", "system": "http://hl7.org/fhir/citation-status-type", "display": "PubMed Pubstatus of Pubmed"}]}}, {"period": {"end": "2005-08-06T09:00:00.000Z"}, "activity": {"coding": [{"code": "pubmed-pubstatus-medline", "system": "http://hl7.org/fhir/citation-status-type", "display": "PubMed Pubstatus of Medline"}]}}, {"period": {"end": "2005-04-28T09:00:00.000Z"}, "activity": {"coding": [{"code": "pubmed-pubstatus-entrez", "system": "http://hl7.org/fhir/citation-status-type", "display": "PubMed Pubstatus of Entrez"}]}}], "useContext": [{"code": {"code": "fevir-platform-use", "system": "http://terminology.hl7.org/CodeSystem/citation-classification-type", "display": "FEvIR Platform Use"}, "valueCodeableConcept": {"coding": [{"code": "medline-base", "system": "http://terminology.hl7.org/CodeSystem/citation-artifact-classifier", "display": "Medline Base", "userSelected": false}]}}], "approvalDate": "2005-08-05", "currentState": [{"coding": [{"code": "medline-medline", "system": "http://hl7.org/fhir/citation-status-type", "display": "Medline Citation Status of Medline"}]}, {"coding": [{"code": "pubmed-publication-status-ppublish", "system": "http://hl7.org/fhir/citation-status-type", "display": "PubMed PublicationStatus of ppublish"}]}], "resourceType": "Citation", "citedArtifact": {"title": [{"text": "Defining and reporting hypoglycemia in diabetes: a report from the American Diabetes Association Workgroup on Hypoglycemia.", "type": [{"coding": [{"code": "primary", "system": "http://terminology.hl7.org/CodeSystem/title-type", "display": "Primary title"}]}], "language": {"coding": [{"system": "urn:ietf:bcp:47", "code": "en", "display": "English"}]}}], "identifier": [{"value": "15855602", "system": "https://pubmed.ncbi.nlm.nih.gov"}, {"value": "10.2337/diacare.28.5.1245", "system": "https://doi.org"}, {"type": {"text": "pii", "coding": [{"system": "http://terminology.hl7.org/CodeSystem/v2-0203", "code": "ACSN", "display": "Accession ID"}]}, "value": "28/5/1245"}], "webLocation": [{"url": "https://pubmed.ncbi.nlm.nih.gov/15855602/", "classifier": [{"coding": [{"code": "abstract", "system": "http://terminology.hl7.org/CodeSystem/artifact-url-classifier", "display": "Abstract"}]}]}], "classification": [{"type": {"coding": [{"code": "publishing-model", "system": "http://terminology.hl7.org/CodeSystem/cited-artifact-classification-type", "display": "Publishing Model", "userSelected": false}]}, "classifier": [{"coding": [{"code": "Print", "system": "http://terminology.hl7.org/CodeSystem/citation-artifact-classifier", "display": "Print", "userSelected": false}]}]}, {"type": {"coding": [{"code": "chemical", "system": "http://terminology.hl7.org/CodeSystem/cited-artifact-classification-type", "display": "Chemical", "userSelected": false}]}, "classifier": [{"coding": [{"code": "D007004", "system": "https://www.nlm.nih.gov/mesh", "display": "Hypoglycemic Agents", "userSelected": false}]}, {"coding": [{"code": "D007328", "system": "https://www.nlm.nih.gov/mesh", "display": "Insulin", "userSelected": false}]}]}, {"type": {"coding": [{"code": "mesh-heading", "system": "http://terminology.hl7.org/CodeSystem/cited-artifact-classification-type", "display": "MeSH heading"}]}, "artifactAssessment": [{"type": "ArtifactAssessment", "reference": "#meshHeading0"}]}, {"type": {"coding": [{"code": "publication-type", "system": "http://terminology.hl7.org/CodeSystem/cited-artifact-classification-type", "display": "Publication type"}]}, "classifier": [{"coding": [{"code": "D016446", "system": "https://www.nlm.nih.gov/mesh", "display": "Consensus Development Conference", "userSelected": false}]}, {"coding": [{"code": "D016428", "system": "https://www.nlm.nih.gov/mesh", "display": "Journal Article", "userSelected": false}]}, {"coding": [{"code": "D013485", "system": "https://www.nlm.nih.gov/mesh", "display": "Research Support, Non-U.S. Gov't", "userSelected": false}]}, {"coding": [{"code": "D016454", "system": "https://www.nlm.nih.gov/mesh", "display": "Review", "userSelected": false}]}]}, {"type": {"coding": [{"code": "knowledge-artifact-type", "system": "http://terminology.hl7.org/CodeSystem/cited-artifact-classification-type", "display": "Knowledge Artifact Type", "userSelected": false}]}, "classifier": [{"coding": [{"code": "D016428", "system": "http://terminology.hl7.org/CodeSystem/citation-artifact-classifier", "display": "Journal Article", "userSelected": false}]}], "artifactAssessment": [{"display": "Classifier added by Computable Publishing LLC"}]}, {"type": {"coding": [{"code": "citation-subset", "system": "http://terminology.hl7.org/CodeSystem/cited-artifact-classification-type", "display": "Citation subset", "userSelected": false}]}, "classifier": [{"coding": [{"code": "IM", "system": "https://www.nlm.nih.gov/bsd/licensee/elements_descriptions.html#citationsubset", "display": "IM", "userSelected": false}]}]}], "contributorship": {"entry": [{"contributor": {"type": "Organization", "display": "Workgroup on Hypoglycemia, American Diabetes Association", "reference": "#contributor0"}}], "complete": true}, "publicationForm": [{"issue": "5", "volume": "28", "pageString": "1245-9", "articleDate": "2005-05", "citedMedium": {"coding": [{"code": "print", "system": "http://terminology.hl7.org/CodeSystem/cited-medium", "display": "Print"}]}, "publishedIn": {"type": {"coding": [{"code": "D020492", "system": "http://terminology.hl7.org/CodeSystem/published-in-type", "display": "Periodical"}]}, "title": "Diabetes care", "identifier": [{"type": {"text": "Print ISSN Type", "coding": [{"code": "Print", "system": "https://www.nlm.nih.gov/bsd/licensee/elements_descriptions.html#issn", "display": "Print"}]}, "value": "0149-5992", "system": "https://portal.issn.org"}, {"type": {"text": "ISOAbbreviation", "coding": [{"system": "http://terminology.hl7.org/CodeSystem/v2-0203", "code": "XX", "display": "Organization identifier"}]}, "value": "Diabetes Care", "system": "https://www.issn.org/services/online-services/access-to-the-ltwa/"}, {"type": {"text": "ISSN Linking", "coding": [{"system": "http://terminology.hl7.org/CodeSystem/v2-0203", "code": "XX", "display": "Organization identifier"}]}, "value": "0149-5992", "system": "https://www.issn.org/understanding-the-issn/assignment-rules/the-issn-l-for-publications-on-multiple-media/"}, {"type": {"text": "Medline Title Abbreviation", "coding": [{"system": "http://terminology.hl7.org/CodeSystem/v2-0203", "code": "XX", "display": "Organization identifier"}]}, "value": "Diabetes Care", "system": "https://www.nlm.nih.gov/tsd/cataloging/contructitleabbre.html"}, {"type": {"text": "NLM Unique ID", "coding": [{"system": "http://terminology.hl7.org/CodeSystem/v2-0203", "code": "XX", "display": "Organization identifier"}]}, "value": "7805975", "system": "https://locatorplus.gov/cgi-bin/Pwebrecon.cgi?DB=local"}], "publisherLocation": "United States"}}]}, "classification": [{"type": {"coding": [{"code": "citation-source", "system": "http://terminology.hl7.org/CodeSystem/citation-classification-type", "display": "Citation Source"}]}, "classifier": [{"text": "MEDLINE"}]}, {"type": {"coding": [{"code": "medline-owner", "system": "http://terminology.hl7.org/CodeSystem/citation-classification-type", "display": "MEDLINE Citation Owner"}]}, "classifier": [{"coding": [{"code": "NLM", "system": "https://www.nlm.nih.gov/bsd/licensee/elements_descriptions.html#owner_value", "display": "National Library of Medicine, Index Section", "userSelected": false}]}]}], "lastReviewDate": "2024-12-19", "description": "This Citation Resource is referenced in an example for the EBMonFHIR Implementation Guide."}