{"id": "179624", "url": "https://fevir.net/resources/Citation/179624", "meta": {"profile": ["http://hl7.org/fhir/uv/ebm/StructureDefinition/journal-article-citation"], "versionId": "20", "lastUpdated": "2025-10-13T12:34:35.118Z"}, "title": "24598155 Long-term results of a phase II study with neoadjuvant docetaxel chemotherapy and complete androgen blockade in locally advanced and high-risk prostate cancer.", "author": [{"name": "Computable Publishing\u00ae: MEDLINE-to-FEvIR Converter"}], "status": "active", "contact": [{"telecom": [{"value": "support@computablepublishing.com", "system": "email"}]}], "contained": [{"id": "contributor0", "name": [{"given": ["Mark"], "family": "Thalgott"}], "resourceType": "Practitioner"}, {"id": "contributor1", "name": [{"given": ["Thomas"], "family": "Horn"}], "resourceType": "Practitioner"}, {"id": "contributor2", "name": [{"given": ["Matthias M"], "family": "Heck"}], "resourceType": "Practitioner"}, {"id": "contributor3", "name": [{"given": ["Tobias"], "family": "Maurer"}], "resourceType": "Practitioner"}, {"id": "contributor4", "name": [{"given": ["Matthias"], "family": "Eiber"}], "resourceType": "Practitioner"}, {"id": "contributor5", "name": [{"given": ["Margitta"], "family": "Retz"}], "resourceType": "Practitioner"}, {"id": "contributor6", "name": [{"given": ["Michael"], "family": "Autenrieth"}], "resourceType": "Practitioner"}, {"id": "contributor7", "name": [{"given": ["Kathleen"], "family": "Herkommer"}], "resourceType": "Practitioner"}, {"id": "contributor8", "name": [{"given": ["Bernd J"], "family": "Krause"}], "resourceType": "Practitioner"}, {"id": "contributor9", "name": [{"given": ["J\u00fcrgen E"], "family": "Gschwend"}], "resourceType": "Practitioner"}, {"id": "contributor10", "name": [{"given": ["Uwe"], "family": "Treiber"}], "resourceType": "Practitioner"}, {"id": "contributor11", "name": [{"given": ["Hubert R"], "family": "K\u00fcbler"}], "resourceType": "Practitioner"}, {"id": "meshHeading0", "content": [{"type": {"text": "components (if present) include qualifier codings", "coding": [{"code": "mesh-heading", "system": "http://terminology.hl7.org/CodeSystem/cited-artifact-classification-type", "display": "MeSH heading"}]}, "component": [{"type": {"text": "qualifier"}, "classifier": [{"text": "is not a major topic"}]}], "classifier": [{"coding": [{"code": "D000368", "system": "https://www.nlm.nih.gov/mesh", "display": "Aged", "userSelected": false}]}], "freeToShare": true}, {"type": {"text": "components (if present) include qualifier codings", "coding": [{"code": "mesh-heading", "system": "http://terminology.hl7.org/CodeSystem/cited-artifact-classification-type", "display": "MeSH heading"}]}, "component": [{"type": {"text": "qualifier"}, "classifier": [{"text": "is not a major topic"}]}, {"type": {"text": "qualifier"}, "component": [{"type": {"text": "is Major topic"}, "classifier": [{"coding": [{"code": "C49488", "system": "http://ncicb.nci.nih.gov/xml/owl/EVS/Thesaurus.owl", "display": "Yes"}]}]}], "classifier": [{"coding": [{"code": "Q000627", "system": "https://www.nlm.nih.gov/mesh", "display": "therapeutic use"}]}]}], "classifier": [{"coding": [{"code": "D000726", "system": "https://www.nlm.nih.gov/mesh", "display": "Androgen Antagonists", "userSelected": false}]}], "freeToShare": true}, {"type": {"text": "components (if present) include qualifier codings", "coding": [{"code": "mesh-heading", "system": "http://terminology.hl7.org/CodeSystem/cited-artifact-classification-type", "display": "MeSH heading"}]}, "component": [{"type": {"text": "qualifier"}, "classifier": [{"text": "is not a major topic"}]}], "classifier": [{"coding": [{"code": "D018450", "system": "https://www.nlm.nih.gov/mesh", "display": "Disease Progression", "userSelected": false}]}], "freeToShare": true}, {"type": {"text": "components (if present) include qualifier codings", "coding": [{"code": "mesh-heading", "system": "http://terminology.hl7.org/CodeSystem/cited-artifact-classification-type", "display": "MeSH heading"}]}, "component": [{"type": {"text": "qualifier"}, "classifier": [{"text": "is not a major topic"}]}], "classifier": [{"coding": [{"code": "D000077143", "system": "https://www.nlm.nih.gov/mesh", "display": "Docetaxel", "userSelected": false}]}], "freeToShare": true}, {"type": {"text": "components (if present) include qualifier codings", "coding": [{"code": "mesh-heading", "system": "http://terminology.hl7.org/CodeSystem/cited-artifact-classification-type", "display": "MeSH heading"}]}, "component": [{"type": {"text": "qualifier"}, "classifier": [{"text": "is not a major topic"}]}], "classifier": [{"coding": [{"code": "D006801", "system": "https://www.nlm.nih.gov/mesh", "display": "Humans", "userSelected": false}]}], "freeToShare": true}, {"type": {"text": "components (if present) include qualifier codings", "coding": [{"code": "mesh-heading", "system": "http://terminology.hl7.org/CodeSystem/cited-artifact-classification-type", "display": "MeSH heading"}]}, "component": [{"type": {"text": "qualifier"}, "classifier": [{"text": "is not a major topic"}]}], "classifier": [{"coding": [{"code": "D008297", "system": "https://www.nlm.nih.gov/mesh", "display": "Male", "userSelected": false}]}], "freeToShare": true}, {"type": {"text": "components (if present) include qualifier codings", "coding": [{"code": "mesh-heading", "system": "http://terminology.hl7.org/CodeSystem/cited-artifact-classification-type", "display": "MeSH heading"}]}, "component": [{"type": {"text": "qualifier"}, "classifier": [{"text": "is not a major topic"}]}], "classifier": [{"coding": [{"code": "D008875", "system": "https://www.nlm.nih.gov/mesh", "display": "Middle Aged", "userSelected": false}]}], "freeToShare": true}, {"type": {"text": "components (if present) include qualifier codings", "coding": [{"code": "mesh-heading", "system": "http://terminology.hl7.org/CodeSystem/cited-artifact-classification-type", "display": "MeSH heading"}]}, "component": [{"type": {"text": "qualifier"}, "classifier": [{"text": "is not a major topic"}]}], "classifier": [{"coding": [{"code": "D020360", "system": "https://www.nlm.nih.gov/mesh", "display": "Neoadjuvant Therapy", "userSelected": false}]}], "freeToShare": true}, {"type": {"text": "components (if present) include qualifier codings", "coding": [{"code": "mesh-heading", "system": "http://terminology.hl7.org/CodeSystem/cited-artifact-classification-type", "display": "MeSH heading"}]}, "component": [{"type": {"text": "qualifier"}, "classifier": [{"text": "is not a major topic"}]}, {"type": {"text": "qualifier"}, "component": [{"type": {"text": "is Major topic"}, "classifier": [{"coding": [{"code": "C49488", "system": "http://ncicb.nci.nih.gov/xml/owl/EVS/Thesaurus.owl", "display": "Yes"}]}]}], "classifier": [{"coding": [{"code": "Q000188", "system": "https://www.nlm.nih.gov/mesh", "display": "drug therapy"}]}]}, {"type": {"text": "qualifier"}, "component": [{"type": {"text": "is Major topic"}, "classifier": [{"coding": [{"code": "C49487", "system": "http://ncicb.nci.nih.gov/xml/owl/EVS/Thesaurus.owl", "display": "No"}]}]}], "classifier": [{"coding": [{"code": "Q000601", "system": "https://www.nlm.nih.gov/mesh", "display": "surgery"}]}]}], "classifier": [{"coding": [{"code": "D011471", "system": "https://www.nlm.nih.gov/mesh", "display": "Prostatic Neoplasms", "userSelected": false}]}], "freeToShare": true}, {"type": {"text": "components (if present) include qualifier codings", "coding": [{"code": "mesh-heading", "system": "http://terminology.hl7.org/CodeSystem/cited-artifact-classification-type", "display": "MeSH heading"}]}, "component": [{"type": {"text": "qualifier"}, "classifier": [{"text": "is not a major topic"}]}], "classifier": [{"coding": [{"code": "D016019", "system": "https://www.nlm.nih.gov/mesh", "display": "Survival Analysis", "userSelected": false}]}], "freeToShare": true}, {"type": {"text": "components (if present) include qualifier codings", "coding": [{"code": "mesh-heading", "system": "http://terminology.hl7.org/CodeSystem/cited-artifact-classification-type", "display": "MeSH heading"}]}, "component": [{"type": {"text": "qualifier"}, "classifier": [{"text": "is not a major topic"}]}, {"type": {"text": "qualifier"}, "component": [{"type": {"text": "is Major topic"}, "classifier": [{"coding": [{"code": "C49487", "system": "http://ncicb.nci.nih.gov/xml/owl/EVS/Thesaurus.owl", "display": "No"}]}]}], "classifier": [{"coding": [{"code": "Q000009", "system": "https://www.nlm.nih.gov/mesh", "display": "adverse effects"}]}]}, {"type": {"text": "qualifier"}, "component": [{"type": {"text": "is Major topic"}, "classifier": [{"coding": [{"code": "C49488", "system": "http://ncicb.nci.nih.gov/xml/owl/EVS/Thesaurus.owl", "display": "Yes"}]}]}], "classifier": [{"coding": [{"code": "Q000627", "system": "https://www.nlm.nih.gov/mesh", "display": "therapeutic use"}]}]}], "classifier": [{"coding": [{"code": "D043823", "system": "https://www.nlm.nih.gov/mesh", "display": "Taxoids", "userSelected": false}]}], "freeToShare": true}, {"type": {"text": "components (if present) include qualifier codings", "coding": [{"code": "mesh-heading", "system": "http://terminology.hl7.org/CodeSystem/cited-artifact-classification-type", "display": "MeSH heading"}]}, "component": [{"type": {"text": "qualifier"}, "classifier": [{"text": "is not a major topic"}]}], "classifier": [{"coding": [{"code": "D016896", "system": "https://www.nlm.nih.gov/mesh", "display": "Treatment Outcome", "userSelected": false}]}], "freeToShare": true}], "resourceType": "ArtifactAssessment", "artifactReference": {"type": "Citation", "reference": "#"}}], "copyright": "https://creativecommons.org/licenses/by-nc-sa/4.0/", "extension": [{"url": "http://hl7.org/fhir/uv/ebm/StructureDefinition/artifact-publication-status", "valueCodeableConcept": {"coding": [{"code": "active", "system": "http://terminology.hl7.org/CodeSystem/cited-artifact-status-type", "display": "Active"}]}}], "publisher": "Computable Publishing LLC", "identifier": [{"type": {"text": "FEvIR Object Identifier", "coding": [{"system": "http://terminology.hl7.org/CodeSystem/v2-0203", "code": "ACSN", "display": "Accession ID"}]}, "value": "179624", "system": "https://fevir.net/FOI", "assigner": {"display": "Computable Publishing LLC"}}, {"value": "24598155", "system": "https://pubmed.ncbi.nlm.nih.gov"}], "statusDate": [{"period": {"end": "2013-12-27"}, "activity": {"coding": [{"code": "pubmed-pubstatus-received", "system": "http://hl7.org/fhir/citation-status-type", "display": "PubMed Pubstatus of Received"}]}}, {"period": {"end": "2014-02-25"}, "activity": {"coding": [{"code": "pubmed-pubstatus-accepted", "system": "http://hl7.org/fhir/citation-status-type", "display": "PubMed Pubstatus of Accepted"}]}}, {"period": {"end": "2014-03-07T06:00:00.000Z"}, "activity": {"coding": [{"code": "pubmed-pubstatus-entrez", "system": "http://hl7.org/fhir/citation-status-type", "display": "PubMed Pubstatus of Entrez"}]}}, {"period": {"end": "2014-03-07T06:00:00.000Z"}, "activity": {"coding": [{"code": "pubmed-pubstatus-pubmed", "system": "http://hl7.org/fhir/citation-status-type", "display": "PubMed Pubstatus of Pubmed"}]}}, {"period": {"end": "2015-01-03T06:00:00.000Z"}, "activity": {"coding": [{"code": "pubmed-pubstatus-medline", "system": "http://hl7.org/fhir/citation-status-type", "display": "PubMed Pubstatus of Medline"}]}}, {"period": {"end": "2014-03-05"}, "activity": {"coding": [{"code": "pubmed-pubstatus-pmc-release", "system": "http://hl7.org/fhir/citation-status-type", "display": "PubMed Pubstatus of PMC release"}]}}], "useContext": [{"code": {"code": "fevir-platform-use", "system": "http://terminology.hl7.org/CodeSystem/citation-classification-type", "display": "FEvIR Platform Use"}, "valueCodeableConcept": {"coding": [{"code": "medline-base", "system": "http://terminology.hl7.org/CodeSystem/citation-artifact-classifier", "display": "Medline Base", "userSelected": false}]}}], "approvalDate": "2015-01-02", "currentState": [{"coding": [{"code": "medline-medline", "system": "http://hl7.org/fhir/citation-status-type", "display": "Medline Citation Status of Medline"}]}, {"coding": [{"code": "pubmed-publication-status-epublish", "system": "http://hl7.org/fhir/citation-status-type", "display": "PubMed PublicationStatus of epublish"}]}], "resourceType": "Citation", "citedArtifact": {"title": [{"text": "Long-term results of a phase II study with neoadjuvant docetaxel chemotherapy and complete androgen blockade in locally advanced and high-risk prostate cancer.", "type": [{"coding": [{"code": "primary", "system": "http://terminology.hl7.org/CodeSystem/title-type", "display": "Primary title"}]}], "language": {"coding": [{"system": "urn:ietf:bcp:47", "code": "en", "display": "English"}]}}], "abstract": [{"text": "**BACKGROUND:** Patients with locally advanced and high-risk prostate cancer (LAPC) are prone to experience biochemical recurrence despite radical prostatectomy (RP). We evaluated feasibility, safety and activity of a neoadjuvant chemohormonal therapy (NCHT) with 3-weekly full dose docetaxel and complete androgen blockade (CAB) in locally advanced and high-risk prostate cancer patients (LAPC) undergoing RP.\n**METHODS:** Patients (n\u2009=\u200930) were selected by Kattans' preoperative score and received trimestral buserelin 9,45 mg, bicalutamide 50 mg/day and 3 cycles docetaxel (75 mg/m\u00b2) followed by RP. Primary endpoints were biochemical (PSA) and local downstaging. Secondary endpoints included toxicity and operability assessments, pathological complete response (pCR), time to PSA progression, 5-year biochemical recurrence free survival (bRFS) and overall survival (OS).\n**RESULTS:** Median baseline PSA was 25.8 ng/ml (2.1-293), and the predicted probability of 5-year bRFS was 10% (0-55). NCHT induced PSA-reduction was 97.3% (81.3-99.9%; p\u2009&lt;\u20090.001) and post-RP 96.7% of patients were therapy responders, with undetectable PSA-values. Post- vs. pretreatment MRI indicated a median tumor volume reduction of 46.4% (-31.3-82.8; p\u2009&lt;\u20090.001). A pathological downstaging was observed in 48.3%. Severe hematologic toxicities (\u2265CTC3) were frequent with 53.8% leucopenia, 90% neutropenia and 13.3% febrile neutropenia. RP was performed in all patients. While resectability was hindered in 26.7%, continence was achieved in 96.7%. Pathologic analyses revealed no pCR. Lymph node- and extracapsular involvement was observed in 36.7% and 56.7% with 33.3% positive surgical margins. After a median of 48.6 (19.9-87.8) months, 55.2% of therapy responders experienced PSA-recurrence. The estimated median time to PSA-progression was 38.6 months (95%CI 30.9-46.4) and 85.3 months (95%CI 39.3-131.3) for OS. The 5-year bRFS was improved to 40%, but limiting for interpretation adjuvant treatment was individualized.\n**CONCLUSIONS:** NCHT is feasible despite high hematotoxicity, with excellent functional results. Significant downstaging was observed without pCR. NCHT seems to improve the cohort adjusted 5-year bRFS, but clinical value needs further investigation in randomized trials.", "type": {"coding": [{"code": "primary-human-use", "system": "http://terminology.hl7.org/CodeSystem/cited-artifact-abstract-type", "display": "Primary human use"}]}}], "relatesTo": [{"type": "cites", "citation": "Kattan MW, Eastham JA, Stapleton AMF, Wheeler TM, Scardino PT. A preoperative nomogram for disease recurrence following radical prostatectomy for prostate cancer. J Natl Cancer Inst. 1998;90:766\u2013771. doi: 10.1093/jnci/90.10.766.", "classifier": [{"coding": [{"code": "D016428", "system": "http://hl7.org/fhir/citation-artifact-classifier", "display": "Journal Article"}]}], "targetReference": {"type": "Citation", "reference": "https://pubmed.ncbi.nlm.nih.gov/9605647/", "identifier": {"value": "9605647", "system": "https://pubmed.ncbi.nlm.nih.gov", "assigner": {"display": "NLM"}}}}, {"type": "cites", "citation": "D\u2019Amico AV, Whittington R, Malkowicz SB, Schultz D, Blank K, Broderick GA, Tomaszewski JE, Renshaw AA, Kaplan I, Beard CJ, Wein A. Biochemical outcome after radical prostatectomy, external beam radiation therapy, or interstitial radiation therapy for clinically localized prostate cancer. JAMA. 1998;280(11):969\u2013974. doi: 10.1001/jama.280.11.969.", "classifier": [{"coding": [{"code": "D016428", "system": "http://hl7.org/fhir/citation-artifact-classifier", "display": "Journal Article"}]}], "targetReference": {"type": "Citation", "reference": "https://pubmed.ncbi.nlm.nih.gov/9749478/", "identifier": {"value": "9749478", "system": "https://pubmed.ncbi.nlm.nih.gov", "assigner": {"display": "NLM"}}}}, {"type": "cites", "citation": "Sonpavde G, Sternberg CN. Neoadjuvant systemic therapy for urological malignancies. BJU Int. 2010;106(1):6\u201322.", "classifier": [{"coding": [{"code": "D016428", "system": "http://hl7.org/fhir/citation-artifact-classifier", "display": "Journal Article"}]}], "targetReference": {"type": "Citation", "reference": "https://pubmed.ncbi.nlm.nih.gov/20553475/", "identifier": {"value": "20553475", "system": "https://pubmed.ncbi.nlm.nih.gov", "assigner": {"display": "NLM"}}}}, {"type": "cites", "citation": "Bolla M, Collette L, Blank L, Warde P, Dubois JB, Mirimanoff RO, Storme G, Bernier J, Kuten A, Sternberg C, Mattelaer J, Lopez Torecilla J, Pfeffer JR, Lino Cutajar C, Zurlo A, Pierart M. Long-term results with immediate androgen suppression and external irradiation in patients with locally advanced prostate cancer (an EORTC study): a phase III randomised trial. Lancet. 2002;360(9327):103\u2013106. doi: 10.1016/S0140-6736(02)09408-4.", "classifier": [{"coding": [{"code": "D016428", "system": "http://hl7.org/fhir/citation-artifact-classifier", "display": "Journal Article"}]}], "targetReference": {"type": "Citation", "reference": "https://pubmed.ncbi.nlm.nih.gov/12126818/", "identifier": {"value": "12126818", "system": "https://pubmed.ncbi.nlm.nih.gov", "assigner": {"display": "NLM"}}}}, {"type": "cites", "citation": "Warde P, Mason M, Ding K, Kirkbride P, Brundage M, Cowan R, Gospodarowicz M, Sanders K, Kostashuk E, Swanson G, Barber J, Hiltz A, Parmar MK, Sathya J, Anderson J, Hayter C, Hetherington J, Sydes MR, Parulekar W, NCIC CTG. PR.3/MRC UK PR07 investigators. Combined androgen deprivation therapy and radiation therapy for locally advanced prostate cancer: a randomised, phase 3 trial. Lancet. 2011;378(9809):2104\u20132111. doi: 10.1016/S0140-6736(11)61095-7.", "classifier": [{"coding": [{"code": "D016428", "system": "http://hl7.org/fhir/citation-artifact-classifier", "display": "Journal Article"}]}], "targetReference": {"type": "Citation", "reference": "https://pubmed.ncbi.nlm.nih.gov/22056152/", "identifier": {"value": "22056152", "system": "https://pubmed.ncbi.nlm.nih.gov", "assigner": {"display": "NLM"}}}}, {"type": "cites", "citation": "Shelley MD, Kumar S, Wilt T, Staffurth J, Coles B, Mason MD. A systematic review and meta-analysis of randomised trials of neo-adjuvant hormone therapy for localised and locally advanced prostate carcinoma. Cancer Treat Rev. 2009;35(1):9\u201317. doi: 10.1016/j.ctrv.2008.08.002.", "classifier": [{"coding": [{"code": "D016428", "system": "http://hl7.org/fhir/citation-artifact-classifier", "display": "Journal Article"}]}], "targetReference": {"type": "Citation", "reference": "https://pubmed.ncbi.nlm.nih.gov/18926640/", "identifier": {"value": "18926640", "system": "https://pubmed.ncbi.nlm.nih.gov", "assigner": {"display": "NLM"}}}}, {"type": "cites", "citation": "Prayer-Galetti T, Sacco E, Pagano F, Gardiman M, Cisternino A, Betto G, Sperandio P. Long-term follow-up of a neoadjuvant chemohormonal taxane-based phase II trial before radical prostatectomy in patients with non-metastatic high-risk prostate cancer. BJU Int. 2007;100(2):274\u2013280. doi: 10.1111/j.1464-410X.2007.06760.x.", "classifier": [{"coding": [{"code": "D016428", "system": "http://hl7.org/fhir/citation-artifact-classifier", "display": "Journal Article"}]}], "targetReference": {"type": "Citation", "reference": "https://pubmed.ncbi.nlm.nih.gov/17355369/", "identifier": {"value": "17355369", "system": "https://pubmed.ncbi.nlm.nih.gov", "assigner": {"display": "NLM"}}}}, {"type": "cites", "citation": "Petrylak DP, Tangen CM, Hussain MH, Lara PN Jr, Jones JA, Taplin ME, Burch PA, Berry D, Moinpour C, Kohli M, Benson MC, Small EJ, Raghavan D, Crawford ED. Docetaxel and estramustine compared with mitoxantrone and prednisone for advanced refractory prostate cancer. N Engl J Med. 2004;351(15):1513\u20131520. doi: 10.1056/NEJMoa041318.", "classifier": [{"coding": [{"code": "D016428", "system": "http://hl7.org/fhir/citation-artifact-classifier", "display": "Journal Article"}]}], "targetReference": {"type": "Citation", "reference": "https://pubmed.ncbi.nlm.nih.gov/15470214/", "identifier": {"value": "15470214", "system": "https://pubmed.ncbi.nlm.nih.gov", "assigner": {"display": "NLM"}}}}, {"type": "cites", "citation": "Berthold DR, Pond GR, Soban F, de Wit R, Eisenberger M, Tannock IF. Docetaxel plus prednisone or mitoxantrone plus prednisone for advanced prostate cancer: updated survival in the TAX 327 study. J Clin Oncol. 2008;26(2):242\u2013245. doi: 10.1200/JCO.2007.12.4008.", "classifier": [{"coding": [{"code": "D016428", "system": "http://hl7.org/fhir/citation-artifact-classifier", "display": "Journal Article"}]}], "targetReference": {"type": "Citation", "reference": "https://pubmed.ncbi.nlm.nih.gov/18182665/", "identifier": {"value": "18182665", "system": "https://pubmed.ncbi.nlm.nih.gov", "assigner": {"display": "NLM"}}}}, {"type": "cites", "citation": "Sartor AO. Progression of metastatic castrate-resistant prostate cancer: impact of therapeutic intervention in the post-docetaxel space. J Hematol Oncol. 2011;4:18. doi: 10.1186/1756-8722-4-18.", "classifier": [{"coding": [{"code": "D016428", "system": "http://hl7.org/fhir/citation-artifact-classifier", "display": "Journal Article"}]}], "targetReference": {"type": "Citation", "reference": "https://pubmed.ncbi.nlm.nih.gov/21513551/", "identifier": {"value": "21513551", "system": "https://pubmed.ncbi.nlm.nih.gov", "assigner": {"display": "NLM"}}}}, {"type": "cites", "citation": "Huang X, Chau CH, Figg WD. Challenges to improved therapeutics for metastatic castrate resistant prostate cancer: from recent successes and failures. J Hematol Oncol. 2012;5:35. doi: 10.1186/1756-8722-5-35.", "classifier": [{"coding": [{"code": "D016428", "system": "http://hl7.org/fhir/citation-artifact-classifier", "display": "Journal Article"}]}], "targetReference": {"type": "Citation", "reference": "https://pubmed.ncbi.nlm.nih.gov/22747660/", "identifier": {"value": "22747660", "system": "https://pubmed.ncbi.nlm.nih.gov", "assigner": {"display": "NLM"}}}}, {"type": "cites", "citation": "Dreicer R, Magi-Galluzzi C, Zhou M, Rothaermel J, Reuther A, Ulchaker J, Zippe C, Fergany A, Klein EA. Phase II trial of neoadjuvant docetaxel before radical prostatectomy for locally advanced prostate cancer. Urology. 2004;63(6):1138\u20131142. doi: 10.1016/j.urology.2004.01.040.", "classifier": [{"coding": [{"code": "D016428", "system": "http://hl7.org/fhir/citation-artifact-classifier", "display": "Journal Article"}]}], "targetReference": {"type": "Citation", "reference": "https://pubmed.ncbi.nlm.nih.gov/15183967/", "identifier": {"value": "15183967", "system": "https://pubmed.ncbi.nlm.nih.gov", "assigner": {"display": "NLM"}}}}, {"type": "cites", "citation": "Febbo PG, Richie JP, George DJ, Loda M, Manola J, Shankar S, Barnes AS, Tempany C, Catalona W, Kantoff PW, Oh WK. Neoadjuvant docetaxel before radical prostatectomy in patients with high-risk localized prostate cancer. Clin Cancer Res. 2005;11(14):5233\u20135240. doi: 10.1158/1078-0432.CCR-05-0299.", "classifier": [{"coding": [{"code": "D016428", "system": "http://hl7.org/fhir/citation-artifact-classifier", "display": "Journal Article"}]}], "targetReference": {"type": "Citation", "reference": "https://pubmed.ncbi.nlm.nih.gov/16033841/", "identifier": {"value": "16033841", "system": "https://pubmed.ncbi.nlm.nih.gov", "assigner": {"display": "NLM"}}}}, {"type": "cites", "citation": "Magi-Galluzzi C, Zhou M, Reuther AM, Dreicer R, Klein EA. Neoadjuvant docetaxel treatment for locally advanced prostate cancer: a clinicopathologic study. Cancer. 2007;110(6):1248\u20131254. doi: 10.1002/cncr.22897.", "classifier": [{"coding": [{"code": "D016428", "system": "http://hl7.org/fhir/citation-artifact-classifier", "display": "Journal Article"}]}], "targetReference": {"type": "Citation", "reference": "https://pubmed.ncbi.nlm.nih.gov/17674353/", "identifier": {"value": "17674353", "system": "https://pubmed.ncbi.nlm.nih.gov", "assigner": {"display": "NLM"}}}}, {"type": "cites", "citation": "Mellado B, Font A, Alcaraz A, Aparicio LA, Veiga FJ, Areal J, Gallardo E, Hannaoui N, Lorenzo JR, Sousa A, Fernandez PL, Gascon P. Phase II trial of short-term neoadjuvant docetaxel and complete androgen blockade in high-risk prostate cancer. Br J Cancer. 2009;101(8):1248\u20131252. doi: 10.1038/sj.bjc.6605320.", "classifier": [{"coding": [{"code": "D016428", "system": "http://hl7.org/fhir/citation-artifact-classifier", "display": "Journal Article"}]}], "targetReference": {"type": "Citation", "reference": "https://pubmed.ncbi.nlm.nih.gov/19755998/", "identifier": {"value": "19755998", "system": "https://pubmed.ncbi.nlm.nih.gov", "assigner": {"display": "NLM"}}}}, {"type": "cites", "citation": "Chi KN, Chin JL, Winquist E, Klotz L, Saad F, Gleave ME. Multicenter phase II study of combined neoadjuvant docetaxel and hormone therapy before radical prostatectomy for patients with high risk localized prostate cancer. J Urol. 2008;180(2):565\u2013570. doi: 10.1016/j.juro.2008.04.012.", "classifier": [{"coding": [{"code": "D016428", "system": "http://hl7.org/fhir/citation-artifact-classifier", "display": "Journal Article"}]}], "targetReference": {"type": "Citation", "reference": "https://pubmed.ncbi.nlm.nih.gov/18554663/", "identifier": {"value": "18554663", "system": "https://pubmed.ncbi.nlm.nih.gov", "assigner": {"display": "NLM"}}}}, {"type": "cites", "citation": "Sella A, Zisman A, Kovel S, Yarom N, Leibovici D, Lindner A. Neoadjuvant chemohormonal therapy in poor-prognosis localized prostate cancer. Urology. 2008;71(2):323\u2013327. doi: 10.1016/j.urology.2007.08.060.", "classifier": [{"coding": [{"code": "D016428", "system": "http://hl7.org/fhir/citation-artifact-classifier", "display": "Journal Article"}]}], "targetReference": {"type": "Citation", "reference": "https://pubmed.ncbi.nlm.nih.gov/18308112/", "identifier": {"value": "18308112", "system": "https://pubmed.ncbi.nlm.nih.gov", "assigner": {"display": "NLM"}}}}, {"type": "cites", "citation": "Narita S, Tsuchiya N, Kumazawa T, Maita S, Numakura K, Obara T, Tsuruta H, Saito M, Inoue T, Horikawa Y, Satoh S, Nanjyo H, Habuchi T. Short-term clinicopathological outcome of neoadjuvant chemohormonal therapy comprising complete androgen blockade, followed by treatment with docetaxel and estramustine phosphate before radical prostatectomy in Japanese patients with high-risk localized prostate cancer. World J Surg Oncol. 2012;10:1. doi: 10.1186/1477-7819-10-1.", "classifier": [{"coding": [{"code": "D016428", "system": "http://hl7.org/fhir/citation-artifact-classifier", "display": "Journal Article"}]}], "targetReference": {"type": "Citation", "reference": "https://pubmed.ncbi.nlm.nih.gov/22214417/", "identifier": {"value": "22214417", "system": "https://pubmed.ncbi.nlm.nih.gov", "assigner": {"display": "NLM"}}}}, {"type": "cites", "citation": "van der Kwast TH, T\u00eatu B, Candas B, Gomez JL, Cusan L, Labrie F. Prolonged neoadjuvant combined androgen blockade leads to a further reduction of prostatic tumor volume: three versus six months of endocrine therapy. Urology. 1999;53(3):523\u2013529. doi: 10.1016/S0090-4295(98)00542-1.", "classifier": [{"coding": [{"code": "D016428", "system": "http://hl7.org/fhir/citation-artifact-classifier", "display": "Journal Article"}]}], "targetReference": {"type": "Citation", "reference": "https://pubmed.ncbi.nlm.nih.gov/10096378/", "identifier": {"value": "10096378", "system": "https://pubmed.ncbi.nlm.nih.gov", "assigner": {"display": "NLM"}}}}, {"type": "cites", "citation": "Hu JC, Elkin EP, Pasta DJ, Lubeck DP, Kattan MW, Carroll PR, Litwin MS. Predicting quality of life after radical prostatectomy: results from CaPSURE. J Urol. 2004;171(2 Pt 1):703\u2013708.", "classifier": [{"coding": [{"code": "D016428", "system": "http://hl7.org/fhir/citation-artifact-classifier", "display": "Journal Article"}]}], "targetReference": {"type": "Citation", "reference": "https://pubmed.ncbi.nlm.nih.gov/14713791/", "identifier": {"value": "14713791", "system": "https://pubmed.ncbi.nlm.nih.gov", "assigner": {"display": "NLM"}}}}, {"type": "cites", "citation": "Kim WY, Whang YE, Pruthi RS, Baggstrom MQ, Rathmell WK, Rosenman JG, Wallen EM, Goyal LK, Grigson G, Watkins C, Godley PA. Neoadjuvant docetaxel/estramustine prior to radical prostatectomy or external beam radiotherapy in high risk localized prostate cancer: a phase II trial. Urol Oncol. 2011;29(6):608\u2013613. doi: 10.1016/j.urolonc.2009.09.012.", "classifier": [{"coding": [{"code": "D016428", "system": "http://hl7.org/fhir/citation-artifact-classifier", "display": "Journal Article"}]}], "targetReference": {"type": "Citation", "reference": "https://pubmed.ncbi.nlm.nih.gov/20022268/", "identifier": {"value": "20022268", "system": "https://pubmed.ncbi.nlm.nih.gov", "assigner": {"display": "NLM"}}}}, {"type": "cites", "citation": "Schulman CC, Debruyne FM, Forster G, Selvaggi FP, Zlotta AR, Witjes WP. 4-year follow-up results of a European prospective randomized study on neoadjuvant hormonal therapy prior to radical prostatectomy in T2-3N0M0 prostate cancer. European Study Group on Neoadjuvant Treatment of Prostate Cancer. Eur Urol. 2000;38(6):706\u2013713. doi: 10.1159/000020366.", "classifier": [{"coding": [{"code": "D016428", "system": "http://hl7.org/fhir/citation-artifact-classifier", "display": "Journal Article"}]}], "targetReference": {"type": "Citation", "reference": "https://pubmed.ncbi.nlm.nih.gov/11111188/", "identifier": {"value": "11111188", "system": "https://pubmed.ncbi.nlm.nih.gov", "assigner": {"display": "NLM"}}}}, {"type": "cites", "citation": "Hussain M, Smith DC, El-Rayes BF, Du W, Vaishampayan U, Fontana J, Sakr W, Wood D. Neoadjuvant docetaxel and estramustine chemotherapy in high-risk/locallyadvanced prostate cancer. Urology. 2003;61(4):774\u2013780. doi: 10.1016/S0090-4295(02)02519-0.", "classifier": [{"coding": [{"code": "D016428", "system": "http://hl7.org/fhir/citation-artifact-classifier", "display": "Journal Article"}]}], "targetReference": {"type": "Citation", "reference": "https://pubmed.ncbi.nlm.nih.gov/12670564/", "identifier": {"value": "12670564", "system": "https://pubmed.ncbi.nlm.nih.gov", "assigner": {"display": "NLM"}}}}, {"type": "cites", "citation": "Eastham JA, Kelly WK, Grossfeld GD, Small EJ. Cancer and Leukemia Group B (CALGB) 90203: a randomized phase 3 study of radical prostatectomy alone versus estramustine and docetaxel before radical prostatectomy for patients with high-risk localized disease. Urology. 2003;62(Suppl 1):55\u201362.", "classifier": [{"coding": [{"code": "D016428", "system": "http://hl7.org/fhir/citation-artifact-classifier", "display": "Journal Article"}]}], "targetReference": {"type": "Citation", "reference": "https://pubmed.ncbi.nlm.nih.gov/14747042/", "identifier": {"value": "14747042", "system": "https://pubmed.ncbi.nlm.nih.gov", "assigner": {"display": "NLM"}}}}, {"type": "cites", "citation": "D\u2019Amico AV, Chang E, Garnick M, Kantoff P, Jiroutek M, Tempany CM. Assessment of prostate cancer volume using endorectal coil magnetic resonance imaging: a new predictor of tumor response to neoadjuvant androgen suppression therapy. Urology. 1998;51(2):287\u2013292. doi: 10.1016/S0090-4295(97)00610-9.", "classifier": [{"coding": [{"code": "D016428", "system": "http://hl7.org/fhir/citation-artifact-classifier", "display": "Journal Article"}]}], "targetReference": {"type": "Citation", "reference": "https://pubmed.ncbi.nlm.nih.gov/9495713/", "identifier": {"value": "9495713", "system": "https://pubmed.ncbi.nlm.nih.gov", "assigner": {"display": "NLM"}}}}, {"type": "cites", "citation": "D\u2019Amico AV, Halabi S, Tempany C, Titelbaum D, Philips GK, Loffredo M, McMahon E, Sanford B, Vogelzang NJ, Small EJ. Cancer and Leukemia Group B. Tumor volume changes on 1.5 tesla endorectal MRI during neoadjuvant androgen suppression therapy for higher-risk prostate cancer and recurrence in men treated using radiation therapy results of the phase II CALGB 9682 study. Int J Radiat Oncol Biol Phys. 2008;71(1):9\u201315. doi: 10.1016/j.ijrobp.2007.09.033.", "classifier": [{"coding": [{"code": "D016428", "system": "http://hl7.org/fhir/citation-artifact-classifier", "display": "Journal Article"}]}], "targetReference": {"type": "Citation", "reference": "https://pubmed.ncbi.nlm.nih.gov/18037582/", "identifier": {"value": "18037582", "system": "https://pubmed.ncbi.nlm.nih.gov", "assigner": {"display": "NLM"}}}}, {"type": "cites", "citation": "Vuky J, Porter C, Isacson C, Vaughan M, Kozlowski P, Picozzi V, Corman J. Phase II trial of neoadjuvant docetaxel and gefitinib followed by radical prostatectomy in patients with high-risk, locally advanced prostate cancer. Cancer. 2009;115(4):784\u2013791. doi: 10.1002/cncr.24092.", "classifier": [{"coding": [{"code": "D016428", "system": "http://hl7.org/fhir/citation-artifact-classifier", "display": "Journal Article"}]}], "targetReference": {"type": "Citation", "reference": "https://pubmed.ncbi.nlm.nih.gov/19130458/", "identifier": {"value": "19130458", "system": "https://pubmed.ncbi.nlm.nih.gov", "assigner": {"display": "NLM"}}}}, {"type": "cites", "citation": "Mottet N, Bellmunt J, Bolla M, Joniau S, Mason M, Matveev V, Schmid HP, Van der Kwast T, Wiegel T, Zattoni F, Heidenreich A. EAU guidelines on prostate cancer. Part II: Treatment of advanced, relapsing, and castration-resistant prostate cancer. Eur Urol. 2011;59(4):572\u2013583. doi: 10.1016/j.eururo.2011.01.025.", "classifier": [{"coding": [{"code": "D016428", "system": "http://hl7.org/fhir/citation-artifact-classifier", "display": "Journal Article"}]}], "targetReference": {"type": "Citation", "reference": "https://pubmed.ncbi.nlm.nih.gov/21315502/", "identifier": {"value": "21315502", "system": "https://pubmed.ncbi.nlm.nih.gov", "assigner": {"display": "NLM"}}}}, {"type": "cites", "citation": "Goldstein I, Lue TF, Padma-Nathan H, Rosen RC, Steers WD, Wicker PA. Sildenafil Study Group. Oral sildenafil in the treatment of erectile dysfunction. 1998. J Urol. 2002;167(2 Pt 2):1197\u20131203.", "classifier": [{"coding": [{"code": "D016428", "system": "http://hl7.org/fhir/citation-artifact-classifier", "display": "Journal Article"}]}], "targetReference": {"type": "Citation", "reference": "https://pubmed.ncbi.nlm.nih.gov/11905901/", "identifier": {"value": "11905901", "system": "https://pubmed.ncbi.nlm.nih.gov", "assigner": {"display": "NLM"}}}}, {"type": "cites", "citation": "Bubley GJ, Carducci M, Dahut W, Dawson N, Daliani D, Eisenberger M, Figg WD, Freidlin B, Halabi S, Hudes G, Hussain M, Kaplan R, Myers C, Oh W, Petrylak DP, Reed E, Roth B, Sartor O, Scher H, Simons J, Sinibaldi V, Small EJ, Smith MR, Trump DL, Robin V, Wilding G. Eligibility and response guidelines for phase II clinical trials in androgen-independent prostate cancer: recommendations from the Prostate-Specific Antigen Working Group. J Clin Oncol. 1999;17(11):3461\u20133467.", "classifier": [{"coding": [{"code": "D016428", "system": "http://hl7.org/fhir/citation-artifact-classifier", "display": "Journal Article"}]}], "targetReference": {"type": "Citation", "reference": "https://pubmed.ncbi.nlm.nih.gov/10550143/", "identifier": {"value": "10550143", "system": "https://pubmed.ncbi.nlm.nih.gov", "assigner": {"display": "NLM"}}}}], "identifier": [{"value": "24598155", "system": "https://pubmed.ncbi.nlm.nih.gov"}, {"value": "PMC3974001", "system": "https://www.ncbi.nlm.nih.gov/pmc/"}, {"value": "10.1186/1756-8722-7-20", "system": "https://doi.org"}, {"type": {"text": "pii", "coding": [{"system": "http://terminology.hl7.org/CodeSystem/v2-0203", "code": "ACSN", "display": "Accession ID"}]}, "value": "1756-8722-7-20"}], "webLocation": [{"url": "https://pubmed.ncbi.nlm.nih.gov/24598155/", "classifier": [{"coding": [{"code": "abstract", "system": "http://terminology.hl7.org/CodeSystem/artifact-url-classifier", "display": "Abstract"}]}]}, {"url": "https://doi.org/10.1186/1756-8722-7-20", "classifier": [{"coding": [{"code": "doi-based", "system": "http://terminology.hl7.org/CodeSystem/artifact-url-classifier", "display": "DOI Based"}]}]}], "classification": [{"type": {"coding": [{"code": "publishing-model", "system": "http://terminology.hl7.org/CodeSystem/cited-artifact-classification-type", "display": "Publishing Model", "userSelected": false}]}, "classifier": [{"coding": [{"code": "Electronic", "system": "http://terminology.hl7.org/CodeSystem/citation-artifact-classifier", "display": "Electronic", "userSelected": false}]}]}, {"type": {"coding": [{"code": "chemical", "system": "http://terminology.hl7.org/CodeSystem/cited-artifact-classification-type", "display": "Chemical", "userSelected": false}]}, "classifier": [{"coding": [{"code": "D000726", "system": "https://www.nlm.nih.gov/mesh", "display": "Androgen Antagonists", "userSelected": false}]}, {"coding": [{"code": "D043823", "system": "https://www.nlm.nih.gov/mesh", "display": "Taxoids", "userSelected": false}]}, {"coding": [{"code": "15H5577CQD", "system": "https://www.cas.org/support/documentation/chemical-substances", "userSelected": false}, {"code": "D000077143", "system": "https://www.nlm.nih.gov/mesh", "display": "Docetaxel", "userSelected": false}]}]}, {"type": {"coding": [{"code": "mesh-heading", "system": "http://terminology.hl7.org/CodeSystem/cited-artifact-classification-type", "display": "MeSH heading"}]}, "artifactAssessment": [{"type": "ArtifactAssessment", "reference": "#meshHeading0"}]}, {"type": {"coding": [{"code": "publication-type", "system": "http://terminology.hl7.org/CodeSystem/cited-artifact-classification-type", "display": "Publication type"}]}, "classifier": [{"coding": [{"code": "D017427", "system": "https://www.nlm.nih.gov/mesh", "display": "Clinical Trial, Phase II", "userSelected": false}]}, {"coding": [{"code": "D016428", "system": "https://www.nlm.nih.gov/mesh", "display": "Journal Article", "userSelected": false}]}]}, {"type": {"coding": [{"code": "knowledge-artifact-type", "system": "http://terminology.hl7.org/CodeSystem/cited-artifact-classification-type", "display": "Knowledge Artifact Type", "userSelected": false}]}, "classifier": [{"coding": [{"code": "D016428", "system": "http://terminology.hl7.org/CodeSystem/citation-artifact-classifier", "display": "Journal Article", "userSelected": false}]}], "artifactAssessment": [{"display": "Classifier added by Computable Publishing LLC"}]}, {"type": {"coding": [{"code": "citation-subset", "system": "http://terminology.hl7.org/CodeSystem/cited-artifact-classification-type", "display": "Citation subset", "userSelected": false}]}, "classifier": [{"coding": [{"code": "IM", "system": "https://www.nlm.nih.gov/bsd/licensee/elements_descriptions.html#citationsubset", "display": "IM", "userSelected": false}]}]}], "contributorship": {"entry": [{"affiliation": [{"display": "Department of Urology, Klinikum rechts der Isar, Technische Universit\u00e4t M\u00fcnchen, Ismaninger Str, 22, Munich 81675, Germany. mark.thalgott@lrz.tum.de."}], "contributor": {"type": "Practitioner", "display": "Thalgott M", "reference": "#contributor0"}, "forenameInitials": "M"}, {"contributor": {"type": "Practitioner", "display": "Horn T", "reference": "#contributor1"}, "forenameInitials": "T"}, {"contributor": {"type": "Practitioner", "display": "Heck MM", "reference": "#contributor2"}, "forenameInitials": "MM"}, {"contributor": {"type": "Practitioner", "display": "Maurer T", "reference": "#contributor3"}, "forenameInitials": "T"}, {"contributor": {"type": "Practitioner", "display": "Eiber M", "reference": "#contributor4"}, "forenameInitials": "M"}, {"contributor": {"type": "Practitioner", "display": "Retz M", "reference": "#contributor5"}, "forenameInitials": "M"}, {"contributor": {"type": "Practitioner", "display": "Autenrieth M", "reference": "#contributor6"}, "forenameInitials": "M"}, {"contributor": {"type": "Practitioner", "display": "Herkommer K", "reference": "#contributor7"}, "forenameInitials": "K"}, {"contributor": {"type": "Practitioner", "display": "Krause BJ", "reference": "#contributor8"}, "forenameInitials": "BJ"}, {"contributor": {"type": "Practitioner", "display": "Gschwend JE", "reference": "#contributor9"}, "forenameInitials": "JE"}, {"contributor": {"type": "Practitioner", "display": "Treiber U", "reference": "#contributor10"}, "forenameInitials": "U"}, {"contributor": {"type": "Practitioner", "display": "K\u00fcbler HR", "reference": "#contributor11"}, "forenameInitials": "HR"}], "complete": true}, "publicationForm": [{"volume": "7", "pageString": "20", "articleDate": "2014-03-05", "citedMedium": {"coding": [{"code": "internet", "system": "http://terminology.hl7.org/CodeSystem/cited-medium", "display": "Internet"}]}, "publishedIn": {"type": {"coding": [{"code": "D020492", "system": "http://terminology.hl7.org/CodeSystem/published-in-type", "display": "Periodical"}]}, "title": "Journal of hematology & oncology", "identifier": [{"type": {"text": "Electronic ISSN Type", "coding": [{"code": "Electronic", "system": "https://www.nlm.nih.gov/bsd/licensee/elements_descriptions.html#issn", "display": "Electronic"}]}, "value": "1756-8722", "system": "https://portal.issn.org"}, {"type": {"text": "ISOAbbreviation", "coding": [{"system": "http://terminology.hl7.org/CodeSystem/v2-0203", "code": "XX", "display": "Organization identifier"}]}, "value": "J Hematol Oncol", "system": "https://www.issn.org/services/online-services/access-to-the-ltwa/"}, {"type": {"text": "ISSN Linking", "coding": [{"system": "http://terminology.hl7.org/CodeSystem/v2-0203", "code": "XX", "display": "Organization identifier"}]}, "value": "1756-8722", "system": "https://www.issn.org/understanding-the-issn/assignment-rules/the-issn-l-for-publications-on-multiple-media/"}, {"type": {"text": "Medline Title Abbreviation", "coding": [{"system": "http://terminology.hl7.org/CodeSystem/v2-0203", "code": "XX", "display": "Organization identifier"}]}, "value": "J Hematol Oncol", "system": "https://www.nlm.nih.gov/tsd/cataloging/contructitleabbre.html"}, {"type": {"text": "NLM Unique ID", "coding": [{"system": "http://terminology.hl7.org/CodeSystem/v2-0203", "code": "XX", "display": "Organization identifier"}]}, "value": "101468937", "system": "https://locatorplus.gov/cgi-bin/Pwebrecon.cgi?DB=local"}], "publisherLocation": "England"}}, {"articleDate": "2014-03-05", "citedMedium": {"coding": [{"code": "internet-without-issue", "system": "http://terminology.hl7.org/CodeSystem/cited-medium", "display": "Internet without issue"}]}}]}, "classification": [{"type": {"coding": [{"code": "citation-source", "system": "http://terminology.hl7.org/CodeSystem/citation-classification-type", "display": "Citation Source"}]}, "classifier": [{"text": "MEDLINE"}]}, {"type": {"coding": [{"code": "medline-owner", "system": "http://terminology.hl7.org/CodeSystem/citation-classification-type", "display": "MEDLINE Citation Owner"}]}, "classifier": [{"coding": [{"code": "NLM", "system": "https://www.nlm.nih.gov/bsd/licensee/elements_descriptions.html#owner_value", "display": "National Library of Medicine, Index Section", "userSelected": false}]}]}], "lastReviewDate": "2021-10-21", "description": "This Citation Resource is referenced in an example for the EBMonFHIR Implementation Guide."}