{"id": "179621", "url": "https://fevir.net/resources/Citation/179621", "meta": {"profile": ["http://hl7.org/fhir/uv/ebm/StructureDefinition/journal-article-citation"], "versionId": "19", "lastUpdated": "2025-10-13T12:34:35.118Z"}, "title": "26028518 Androgen deprivation therapy plus docetaxel and estramustine versus androgen deprivation therapy alone for high-risk localised prostate cancer (GETUG 12): a phase 3 randomised controlled trial.", "author": [{"name": "Computable Publishing\u00ae: MEDLINE-to-FEvIR Converter"}], "status": "active", "contact": [{"telecom": [{"value": "support@computablepublishing.com", "system": "email"}]}], "contained": [{"id": "contributor0", "name": [{"given": ["Karim"], "family": "Fizazi"}], "resourceType": "Practitioner"}, {"id": "contributor1", "name": [{"given": ["Laura"], "family": "Faivre"}], "resourceType": "Practitioner"}, {"id": "contributor2", "name": [{"given": ["Fran\u00e7ois"], "family": "Lesaunier"}], "resourceType": "Practitioner"}, {"id": "contributor3", "name": [{"given": ["Remy"], "family": "Delva"}], "resourceType": "Practitioner"}, {"id": "contributor4", "name": [{"given": ["Gwena\u00eblle"], "family": "Gravis"}], "resourceType": "Practitioner"}, {"id": "contributor5", "name": [{"given": ["Fr\u00e9d\u00e9ric"], "family": "Rolland"}], "resourceType": "Practitioner"}, {"id": "contributor6", "name": [{"given": ["Frank"], "family": "Priou"}], "resourceType": "Practitioner"}, {"id": "contributor7", "name": [{"given": ["Jean-Marc"], "family": "Ferrero"}], "resourceType": "Practitioner"}, {"id": "contributor8", "name": [{"given": ["Nadine"], "family": "Houede"}], "resourceType": "Practitioner"}, {"id": "contributor9", "name": [{"given": ["Lo\u00efc"], "family": "Mourey"}], "resourceType": "Practitioner"}, {"id": "contributor10", "name": [{"given": ["Christine"], "family": "Theodore"}], "resourceType": "Practitioner"}, {"id": "contributor11", "name": [{"given": ["Ivan"], "family": "Krakowski"}], "resourceType": "Practitioner"}, {"id": "contributor12", "name": [{"given": ["Jean-Fran\u00e7ois"], "family": "Berdah"}], "resourceType": "Practitioner"}, {"id": "contributor13", "name": [{"given": ["Marjorie"], "family": "Baciuchka"}], "resourceType": "Practitioner"}, {"id": "contributor14", "name": [{"given": ["Brigitte"], "family": "Laguerre"}], "resourceType": "Practitioner"}, {"id": "contributor15", "name": [{"given": ["Aude"], "family": "Fl\u00e9chon"}], "resourceType": "Practitioner"}, {"id": "contributor16", "name": [{"given": ["Alain"], "family": "Ravaud"}], "resourceType": "Practitioner"}, {"id": "contributor17", "name": [{"given": ["Isabelle"], "family": "Cojean-Zelek"}], "resourceType": "Practitioner"}, {"id": "contributor18", "name": [{"given": ["St\u00e9phane"], "family": "Oudard"}], "resourceType": "Practitioner"}, {"id": "contributor19", "name": [{"given": ["Jean-Luc"], "family": "Labourey"}], "resourceType": "Practitioner"}, {"id": "contributor20", "name": [{"given": ["Paule"], "family": "Chinet-Charrot"}], "resourceType": "Practitioner"}, {"id": "contributor21", "name": [{"given": ["Eric"], "family": "Legouffe"}], "resourceType": "Practitioner"}, {"id": "contributor22", "name": [{"given": ["Jean-L\u00e9on"], "family": "Lagrange"}], "resourceType": "Practitioner"}, {"id": "contributor23", "name": [{"given": ["Claude"], "family": "Linassier"}], "resourceType": "Practitioner"}, {"id": "contributor24", "name": [{"given": ["Ga\u00ebl"], "family": "Deplanque"}], "resourceType": "Practitioner"}, {"id": "contributor25", "name": [{"given": ["Philippe"], "family": "Beuzeboc"}], "resourceType": "Practitioner"}, {"id": "contributor26", "name": [{"given": ["Jean-Louis"], "family": "Davin"}], "resourceType": "Practitioner"}, {"id": "contributor27", "name": [{"given": ["Anne-Laure"], "family": "Martin"}], "resourceType": "Practitioner"}, {"id": "contributor28", "name": [{"given": ["Muriel"], "family": "Habibian"}], "resourceType": "Practitioner"}, {"id": "contributor29", "name": [{"given": ["Agn\u00e8s"], "family": "Laplanche"}], "resourceType": "Practitioner"}, {"id": "contributor30", "name": [{"given": ["St\u00e9phane"], "family": "Culine"}], "resourceType": "Practitioner"}, {"id": "meshHeading0", "content": [{"type": {"text": "components (if present) include qualifier codings", "coding": [{"code": "mesh-heading", "system": "http://terminology.hl7.org/CodeSystem/cited-artifact-classification-type", "display": "MeSH heading"}]}, "component": [{"type": {"text": "qualifier"}, "classifier": [{"text": "is not a major topic"}]}], "classifier": [{"coding": [{"code": "D000368", "system": "https://www.nlm.nih.gov/mesh", "display": "Aged", "userSelected": false}]}], "freeToShare": true}, {"type": {"text": "components (if present) include qualifier codings", "coding": [{"code": "mesh-heading", "system": "http://terminology.hl7.org/CodeSystem/cited-artifact-classification-type", "display": "MeSH heading"}]}, "component": [{"type": {"text": "qualifier"}, "classifier": [{"text": "is not a major topic"}]}, {"type": {"text": "qualifier"}, "component": [{"type": {"text": "is Major topic"}, "classifier": [{"coding": [{"code": "C49488", "system": "http://ncicb.nci.nih.gov/xml/owl/EVS/Thesaurus.owl", "display": "Yes"}]}]}], "classifier": [{"coding": [{"code": "Q000627", "system": "https://www.nlm.nih.gov/mesh", "display": "therapeutic use"}]}]}], "classifier": [{"coding": [{"code": "D000726", "system": "https://www.nlm.nih.gov/mesh", "display": "Androgen Antagonists", "userSelected": false}]}], "freeToShare": true}, {"type": {"text": "components (if present) include qualifier codings", "coding": [{"code": "mesh-heading", "system": "http://terminology.hl7.org/CodeSystem/cited-artifact-classification-type", "display": "MeSH heading"}]}, "component": [{"type": {"text": "qualifier"}, "classifier": [{"text": "is not a major topic"}]}, {"type": {"text": "qualifier"}, "component": [{"type": {"text": "is Major topic"}, "classifier": [{"coding": [{"code": "C49488", "system": "http://ncicb.nci.nih.gov/xml/owl/EVS/Thesaurus.owl", "display": "Yes"}]}]}], "classifier": [{"coding": [{"code": "Q000627", "system": "https://www.nlm.nih.gov/mesh", "display": "therapeutic use"}]}]}], "classifier": [{"coding": [{"code": "D000971", "system": "https://www.nlm.nih.gov/mesh", "display": "Antineoplastic Combined Chemotherapy Protocols", "userSelected": false}]}], "freeToShare": true}, {"type": {"text": "components (if present) include qualifier codings", "coding": [{"code": "mesh-heading", "system": "http://terminology.hl7.org/CodeSystem/cited-artifact-classification-type", "display": "MeSH heading"}]}, "component": [{"type": {"text": "qualifier"}, "classifier": [{"text": "is not a major topic"}]}], "classifier": [{"coding": [{"code": "D018572", "system": "https://www.nlm.nih.gov/mesh", "display": "Disease-Free Survival", "userSelected": false}]}], "freeToShare": true}, {"type": {"text": "components (if present) include qualifier codings", "coding": [{"code": "mesh-heading", "system": "http://terminology.hl7.org/CodeSystem/cited-artifact-classification-type", "display": "MeSH heading"}]}, "component": [{"type": {"text": "qualifier"}, "classifier": [{"text": "is not a major topic"}]}], "classifier": [{"coding": [{"code": "D000077143", "system": "https://www.nlm.nih.gov/mesh", "display": "Docetaxel", "userSelected": false}]}], "freeToShare": true}, {"type": {"text": "components (if present) include qualifier codings", "coding": [{"code": "mesh-heading", "system": "http://terminology.hl7.org/CodeSystem/cited-artifact-classification-type", "display": "MeSH heading"}]}, "component": [{"type": {"text": "qualifier"}, "classifier": [{"text": "is not a major topic"}]}], "classifier": [{"coding": [{"code": "D004305", "system": "https://www.nlm.nih.gov/mesh", "display": "Dose-Response Relationship, Drug", "userSelected": false}]}], "freeToShare": true}, {"type": {"text": "components (if present) include qualifier codings", "coding": [{"code": "mesh-heading", "system": "http://terminology.hl7.org/CodeSystem/cited-artifact-classification-type", "display": "MeSH heading"}]}, "component": [{"type": {"text": "qualifier"}, "classifier": [{"text": "is not a major topic"}]}], "classifier": [{"coding": [{"code": "D004334", "system": "https://www.nlm.nih.gov/mesh", "display": "Drug Administration Schedule", "userSelected": false}]}], "freeToShare": true}, {"type": {"text": "components (if present) include qualifier codings", "coding": [{"code": "mesh-heading", "system": "http://terminology.hl7.org/CodeSystem/cited-artifact-classification-type", "display": "MeSH heading"}]}, "component": [{"type": {"text": "qualifier"}, "classifier": [{"text": "is not a major topic"}]}, {"type": {"text": "qualifier"}, "component": [{"type": {"text": "is Major topic"}, "classifier": [{"coding": [{"code": "C49487", "system": "http://ncicb.nci.nih.gov/xml/owl/EVS/Thesaurus.owl", "display": "No"}]}]}], "classifier": [{"coding": [{"code": "Q000008", "system": "https://www.nlm.nih.gov/mesh", "display": "administration & dosage"}]}]}], "classifier": [{"coding": [{"code": "D004961", "system": "https://www.nlm.nih.gov/mesh", "display": "Estramustine", "userSelected": false}]}], "freeToShare": true}, {"type": {"text": "components (if present) include qualifier codings", "coding": [{"code": "mesh-heading", "system": "http://terminology.hl7.org/CodeSystem/cited-artifact-classification-type", "display": "MeSH heading"}]}, "component": [{"type": {"text": "qualifier"}, "classifier": [{"text": "is not a major topic"}]}], "classifier": [{"coding": [{"code": "D005500", "system": "https://www.nlm.nih.gov/mesh", "display": "Follow-Up Studies", "userSelected": false}]}], "freeToShare": true}, {"type": {"text": "components (if present) include qualifier codings", "coding": [{"code": "mesh-heading", "system": "http://terminology.hl7.org/CodeSystem/cited-artifact-classification-type", "display": "MeSH heading"}]}, "component": [{"type": {"text": "qualifier"}, "classifier": [{"text": "is not a major topic"}]}], "classifier": [{"coding": [{"code": "D005602", "system": "https://www.nlm.nih.gov/mesh", "display": "France", "userSelected": false}]}], "freeToShare": true}, {"type": {"text": "components (if present) include qualifier codings", "coding": [{"code": "mesh-heading", "system": "http://terminology.hl7.org/CodeSystem/cited-artifact-classification-type", "display": "MeSH heading"}]}, "component": [{"type": {"text": "qualifier"}, "classifier": [{"text": "is not a major topic"}]}], "classifier": [{"coding": [{"code": "D006801", "system": "https://www.nlm.nih.gov/mesh", "display": "Humans", "userSelected": false}]}], "freeToShare": true}, {"type": {"text": "components (if present) include qualifier codings", "coding": [{"code": "mesh-heading", "system": "http://terminology.hl7.org/CodeSystem/cited-artifact-classification-type", "display": "MeSH heading"}]}, "component": [{"type": {"text": "qualifier"}, "classifier": [{"text": "is not a major topic"}]}], "classifier": [{"coding": [{"code": "D053208", "system": "https://www.nlm.nih.gov/mesh", "display": "Kaplan-Meier Estimate", "userSelected": false}]}], "freeToShare": true}, {"type": {"text": "components (if present) include qualifier codings", "coding": [{"code": "mesh-heading", "system": "http://terminology.hl7.org/CodeSystem/cited-artifact-classification-type", "display": "MeSH heading"}]}, "component": [{"type": {"text": "qualifier"}, "classifier": [{"text": "is not a major topic"}]}], "classifier": [{"coding": [{"code": "D008297", "system": "https://www.nlm.nih.gov/mesh", "display": "Male", "userSelected": false}]}], "freeToShare": true}, {"type": {"text": "components (if present) include qualifier codings", "coding": [{"code": "mesh-heading", "system": "http://terminology.hl7.org/CodeSystem/cited-artifact-classification-type", "display": "MeSH heading"}]}, "component": [{"type": {"text": "qualifier"}, "classifier": [{"text": "is not a major topic"}]}], "classifier": [{"coding": [{"code": "D020714", "system": "https://www.nlm.nih.gov/mesh", "display": "Maximum Tolerated Dose", "userSelected": false}]}], "freeToShare": true}, {"type": {"text": "components (if present) include qualifier codings", "coding": [{"code": "mesh-heading", "system": "http://terminology.hl7.org/CodeSystem/cited-artifact-classification-type", "display": "MeSH heading"}]}, "component": [{"type": {"text": "qualifier"}, "classifier": [{"text": "is not a major topic"}]}], "classifier": [{"coding": [{"code": "D008875", "system": "https://www.nlm.nih.gov/mesh", "display": "Middle Aged", "userSelected": false}]}], "freeToShare": true}, {"type": {"text": "components (if present) include qualifier codings", "coding": [{"code": "mesh-heading", "system": "http://terminology.hl7.org/CodeSystem/cited-artifact-classification-type", "display": "MeSH heading"}]}, "component": [{"type": {"text": "qualifier"}, "classifier": [{"text": "is not a major topic"}]}, {"type": {"text": "qualifier"}, "component": [{"type": {"text": "is Major topic"}, "classifier": [{"coding": [{"code": "C49487", "system": "http://ncicb.nci.nih.gov/xml/owl/EVS/Thesaurus.owl", "display": "No"}]}]}], "classifier": [{"coding": [{"code": "Q000473", "system": "https://www.nlm.nih.gov/mesh", "display": "pathology"}]}]}], "classifier": [{"coding": [{"code": "D009361", "system": "https://www.nlm.nih.gov/mesh", "display": "Neoplasm Invasiveness", "userSelected": false}]}], "freeToShare": true}, {"type": {"text": "components (if present) include qualifier codings", "coding": [{"code": "mesh-heading", "system": "http://terminology.hl7.org/CodeSystem/cited-artifact-classification-type", "display": "MeSH heading"}]}, "component": [{"type": {"text": "qualifier"}, "classifier": [{"text": "is not a major topic"}]}, {"type": {"text": "qualifier"}, "component": [{"type": {"text": "is Major topic"}, "classifier": [{"coding": [{"code": "C49487", "system": "http://ncicb.nci.nih.gov/xml/owl/EVS/Thesaurus.owl", "display": "No"}]}]}], "classifier": [{"coding": [{"code": "Q000453", "system": "https://www.nlm.nih.gov/mesh", "display": "epidemiology"}]}]}, {"type": {"text": "qualifier"}, "component": [{"type": {"text": "is Major topic"}, "classifier": [{"coding": [{"code": "C49487", "system": "http://ncicb.nci.nih.gov/xml/owl/EVS/Thesaurus.owl", "display": "No"}]}]}], "classifier": [{"coding": [{"code": "Q000473", "system": "https://www.nlm.nih.gov/mesh", "display": "pathology"}]}]}], "classifier": [{"coding": [{"code": "D009364", "system": "https://www.nlm.nih.gov/mesh", "display": "Neoplasm Recurrence, Local", "userSelected": false}]}], "freeToShare": true}, {"type": {"text": "components (if present) include qualifier codings", "coding": [{"code": "mesh-heading", "system": "http://terminology.hl7.org/CodeSystem/cited-artifact-classification-type", "display": "MeSH heading"}]}, "component": [{"type": {"text": "qualifier"}, "classifier": [{"text": "is not a major topic"}]}], "classifier": [{"coding": [{"code": "D009367", "system": "https://www.nlm.nih.gov/mesh", "display": "Neoplasm Staging", "userSelected": false}]}], "freeToShare": true}, {"type": {"text": "components (if present) include qualifier codings", "coding": [{"code": "mesh-heading", "system": "http://terminology.hl7.org/CodeSystem/cited-artifact-classification-type", "display": "MeSH heading"}]}, "component": [{"type": {"text": "qualifier"}, "classifier": [{"text": "is not a major topic"}]}], "classifier": [{"coding": [{"code": "D016016", "system": "https://www.nlm.nih.gov/mesh", "display": "Proportional Hazards Models", "userSelected": false}]}], "freeToShare": true}, {"type": {"text": "components (if present) include qualifier codings", "coding": [{"code": "mesh-heading", "system": "http://terminology.hl7.org/CodeSystem/cited-artifact-classification-type", "display": "MeSH heading"}]}, "component": [{"type": {"text": "qualifier"}, "classifier": [{"text": "is not a major topic"}]}, {"type": {"text": "qualifier"}, "component": [{"type": {"text": "is Major topic"}, "classifier": [{"coding": [{"code": "C49488", "system": "http://ncicb.nci.nih.gov/xml/owl/EVS/Thesaurus.owl", "display": "Yes"}]}]}], "classifier": [{"coding": [{"code": "Q000097", "system": "https://www.nlm.nih.gov/mesh", "display": "blood"}]}]}], "classifier": [{"coding": [{"code": "D017430", "system": "https://www.nlm.nih.gov/mesh", "display": "Prostate-Specific Antigen", "userSelected": false}]}], "freeToShare": true}, {"type": {"text": "components (if present) include qualifier codings", "coding": [{"code": "mesh-heading", "system": "http://terminology.hl7.org/CodeSystem/cited-artifact-classification-type", "display": "MeSH heading"}]}, "component": [{"type": {"text": "qualifier"}, "classifier": [{"text": "is not a major topic"}]}, {"type": {"text": "qualifier"}, "component": [{"type": {"text": "is Major topic"}, "classifier": [{"coding": [{"code": "C49488", "system": "http://ncicb.nci.nih.gov/xml/owl/EVS/Thesaurus.owl", "display": "Yes"}]}]}], "classifier": [{"coding": [{"code": "Q000188", "system": "https://www.nlm.nih.gov/mesh", "display": "drug therapy"}]}]}, {"type": {"text": "qualifier"}, "component": [{"type": {"text": "is Major topic"}, "classifier": [{"coding": [{"code": "C49488", "system": "http://ncicb.nci.nih.gov/xml/owl/EVS/Thesaurus.owl", "display": "Yes"}]}]}], "classifier": [{"coding": [{"code": "Q000401", "system": "https://www.nlm.nih.gov/mesh", "display": "mortality"}]}]}, {"type": {"text": "qualifier"}, "component": [{"type": {"text": "is Major topic"}, "classifier": [{"coding": [{"code": "C49487", "system": "http://ncicb.nci.nih.gov/xml/owl/EVS/Thesaurus.owl", "display": "No"}]}]}], "classifier": [{"coding": [{"code": "Q000473", "system": "https://www.nlm.nih.gov/mesh", "display": "pathology"}]}]}], "classifier": [{"coding": [{"code": "D011471", "system": "https://www.nlm.nih.gov/mesh", "display": "Prostatic Neoplasms", "userSelected": false}]}], "freeToShare": true}, {"type": {"text": "components (if present) include qualifier codings", "coding": [{"code": "mesh-heading", "system": "http://terminology.hl7.org/CodeSystem/cited-artifact-classification-type", "display": "MeSH heading"}]}, "component": [{"type": {"text": "qualifier"}, "classifier": [{"text": "is not a major topic"}]}], "classifier": [{"coding": [{"code": "D016019", "system": "https://www.nlm.nih.gov/mesh", "display": "Survival Analysis", "userSelected": false}]}], "freeToShare": true}, {"type": {"text": "components (if present) include qualifier codings", "coding": [{"code": "mesh-heading", "system": "http://terminology.hl7.org/CodeSystem/cited-artifact-classification-type", "display": "MeSH heading"}]}, "component": [{"type": {"text": "qualifier"}, "classifier": [{"text": "is not a major topic"}]}, {"type": {"text": "qualifier"}, "component": [{"type": {"text": "is Major topic"}, "classifier": [{"coding": [{"code": "C49487", "system": "http://ncicb.nci.nih.gov/xml/owl/EVS/Thesaurus.owl", "display": "No"}]}]}], "classifier": [{"coding": [{"code": "Q000008", "system": "https://www.nlm.nih.gov/mesh", "display": "administration & dosage"}]}]}], "classifier": [{"coding": [{"code": "D043823", "system": "https://www.nlm.nih.gov/mesh", "display": "Taxoids", "userSelected": false}]}], "freeToShare": true}, {"type": {"text": "components (if present) include qualifier codings", "coding": [{"code": "mesh-heading", "system": "http://terminology.hl7.org/CodeSystem/cited-artifact-classification-type", "display": "MeSH heading"}]}, "component": [{"type": {"text": "qualifier"}, "classifier": [{"text": "is not a major topic"}]}], "classifier": [{"coding": [{"code": "D016896", "system": "https://www.nlm.nih.gov/mesh", "display": "Treatment Outcome", "userSelected": false}]}], "freeToShare": true}], "resourceType": "ArtifactAssessment", "artifactReference": {"type": "Citation", "reference": "#"}}], "copyright": "https://creativecommons.org/licenses/by-nc-sa/4.0/", "extension": [{"url": "http://hl7.org/fhir/uv/ebm/StructureDefinition/artifact-publication-status", "valueCodeableConcept": {"coding": [{"code": "active", "system": "http://terminology.hl7.org/CodeSystem/cited-artifact-status-type", "display": "Active"}]}}], "publisher": "Computable Publishing LLC", "identifier": [{"type": {"text": "FEvIR Object Identifier", "coding": [{"system": "http://terminology.hl7.org/CodeSystem/v2-0203", "code": "ACSN", "display": "Accession ID"}]}, "value": "179621", "system": "https://fevir.net/FOI", "assigner": {"display": "Computable Publishing LLC"}}, {"value": "26028518", "system": "https://pubmed.ncbi.nlm.nih.gov"}], "statusDate": [{"period": {"end": "2015-04-15"}, "activity": {"coding": [{"code": "pubmed-pubstatus-received", "system": "http://hl7.org/fhir/citation-status-type", "display": "PubMed Pubstatus of Received"}]}}, {"period": {"end": "2015-05-06"}, "activity": {"coding": [{"code": "pubmed-pubstatus-revised", "system": "http://hl7.org/fhir/citation-status-type", "display": "PubMed Pubstatus of Revised"}]}}, {"period": {"end": "2015-05-08"}, "activity": {"coding": [{"code": "pubmed-pubstatus-accepted", "system": "http://hl7.org/fhir/citation-status-type", "display": "PubMed Pubstatus of Accepted"}]}}, {"period": {"end": "2015-06-02T06:00:00.000Z"}, "activity": {"coding": [{"code": "pubmed-pubstatus-entrez", "system": "http://hl7.org/fhir/citation-status-type", "display": "PubMed Pubstatus of Entrez"}]}}, {"period": {"end": "2015-06-02T06:00:00.000Z"}, "activity": {"coding": [{"code": "pubmed-pubstatus-pubmed", "system": "http://hl7.org/fhir/citation-status-type", "display": "PubMed Pubstatus of Pubmed"}]}}, {"period": {"end": "2015-09-29T06:00:00.000Z"}, "activity": {"coding": [{"code": "pubmed-pubstatus-medline", "system": "http://hl7.org/fhir/citation-status-type", "display": "PubMed Pubstatus of Medline"}]}}], "useContext": [{"code": {"code": "fevir-platform-use", "system": "http://terminology.hl7.org/CodeSystem/citation-classification-type", "display": "FEvIR Platform Use"}, "valueCodeableConcept": {"coding": [{"code": "medline-base", "system": "http://terminology.hl7.org/CodeSystem/citation-artifact-classifier", "display": "Medline Base", "userSelected": false}]}}], "approvalDate": "2015-09-28", "currentState": [{"coding": [{"code": "medline-medline", "system": "http://hl7.org/fhir/citation-status-type", "display": "Medline Citation Status of Medline"}]}, {"coding": [{"code": "pubmed-publication-status-ppublish", "system": "http://hl7.org/fhir/citation-status-type", "display": "PubMed PublicationStatus of ppublish"}]}], "resourceType": "Citation", "citedArtifact": {"title": [{"text": "Androgen deprivation therapy plus docetaxel and estramustine versus androgen deprivation therapy alone for high-risk localised prostate cancer (GETUG 12): a phase 3 randomised controlled trial.", "type": [{"coding": [{"code": "primary", "system": "http://terminology.hl7.org/CodeSystem/title-type", "display": "Primary title"}]}], "language": {"coding": [{"system": "urn:ietf:bcp:47", "code": "en", "display": "English"}]}}], "abstract": [{"text": "**BACKGROUND:** Early risk-stratified chemotherapy is a standard treatment for breast, colorectal, and lung cancers, but not for high-risk localised prostate cancer. Combined docetaxel and estramustine improves survival in patients with castration-resistant prostate cancer. We assessed the effects of combined docetaxel and estramustine on relapse in patients with high-risk localised prostate cancer.\n**METHODS:** We did this randomised phase 3 trial at 26 hospitals in France. We enrolled patients with treatment-naive prostate cancer and at least one risk factor (ie, stage T3-T4 disease, Gleason score of \u22658, prostate-specific antigen concentration &gt;20 ng/mL, or pathological node-positive). All patients underwent a staging pelvic lymph node dissection. Patients were randomly assigned (1:1) to either androgen deprivation therapy (ADT; goserelin 10\u00b78 mg every 3 months for 3 years) plus four cycles of docetaxel on day 2 at a dose of 70 mg/m(2) and estramustine 10 mg/kg per day on days 1-5, every 3 weeks, or ADT only. The randomisation was done centrally by computer, stratified by risk factor. Local treatment was administered at 3 months. Neither patients nor investigators were masked to treatment allocation. The primary endpoint was relapse-free survival in the intention-to-treat population. Follow-up for other endpoints is ongoing. This study is registered with ClinicalTrials.gov, number NCT00055731.\n**FINDINGS:** We randomly assigned 207 patients to the ADT plus docetaxel and estramustine group and 206 to the ADT only group. Median follow-up was 8\u00b78 years (IQR 8\u00b71-9\u00b77). 88 (43%) of 207 patients in the ADT plus docetaxel and estramustine group had an event (relapse or death) versus 111 (54%) of 206 in the ADT only group. 8-year relapse-free survival was 62% (95% CI 55-69) in the ADT plus docetaxel and estramustine group versus 50% (44-57) in the ADT only group (adjusted hazard ratio [HR] 0\u00b771, 95% CI 0\u00b754-0\u00b794, p=0\u00b7017). Of patients who were treated with radiotherapy and had data available, 31 (21%) of 151 in the ADT plus docetaxel and estramustine group versus 26 (18%) of 143 in the ADT only group reported a grade 2 or higher long-term side-effect (p=0\u00b761). We recorded no excess second cancers (26 [13%] of 207 vs 22 [11%] of 206; p=0\u00b757), and there were no treatment-related deaths.\n**INTERPRETATION:** Docetaxel-based chemotherapy improves relapse-free survival in patients with high-risk localised prostate cancer. Longer follow-up is needed to assess whether this benefit translates into improved metastasis-free survival and overall survival.\n**FUNDING:** Ligue Contre le Cancer, Sanofi-Aventis, AstraZeneca, Institut National du Cancer.", "type": {"coding": [{"code": "primary-human-use", "system": "http://terminology.hl7.org/CodeSystem/cited-artifact-abstract-type", "display": "Primary human use"}]}, "copyright": "Copyright \u00a9 2015 Elsevier Ltd. All rights reserved."}], "relatesTo": [{"type": "comment-in", "citation": "Lancet Oncol. 2015 Jul;16(7):741-2. doi: 10.1016/S1470-2045(15)00012-1.", "classifier": [{"coding": [{"code": "D016420", "system": "https://www.nlm.nih.gov/mesh", "display": "Comment", "userSelected": false}]}], "targetReference": {"reference": "https://pubmed.ncbi.nlm.nih.gov/26028517/", "identifier": {"value": "26028517", "system": "https://pubmed.ncbi.nlm.nih.gov", "assigner": {"display": "NLM"}}}}, {"type": "comment-in", "citation": "Nat Rev Urol. 2015 Jul;12(7):358. doi: 10.1038/nrurol.2015.146.", "classifier": [{"coding": [{"code": "D016420", "system": "https://www.nlm.nih.gov/mesh", "display": "Comment", "userSelected": false}]}], "targetReference": {"reference": "https://pubmed.ncbi.nlm.nih.gov/26077993/", "identifier": {"value": "26077993", "system": "https://pubmed.ncbi.nlm.nih.gov", "assigner": {"display": "NLM"}}}}, {"type": "comment-in", "citation": "Eur Urol. 2015 Dec;68(6):1098-9. doi: 10.1016/j.eururo.2015.08.047.", "classifier": [{"coding": [{"code": "D016420", "system": "https://www.nlm.nih.gov/mesh", "display": "Comment", "userSelected": false}]}], "targetReference": {"reference": "https://pubmed.ncbi.nlm.nih.gov/26545569/", "identifier": {"value": "26545569", "system": "https://pubmed.ncbi.nlm.nih.gov", "assigner": {"display": "NLM"}}}}, {"type": "comment-in", "citation": "Nat Rev Clin Oncol. 2015 Dec;12(12):687-8. doi: 10.1038/nrclinonc.2015.192.", "classifier": [{"coding": [{"code": "D016420", "system": "https://www.nlm.nih.gov/mesh", "display": "Comment", "userSelected": false}]}], "targetReference": {"reference": "https://pubmed.ncbi.nlm.nih.gov/26552950/", "identifier": {"value": "26552950", "system": "https://pubmed.ncbi.nlm.nih.gov", "assigner": {"display": "NLM"}}}}], "identifier": [{"value": "26028518", "system": "https://pubmed.ncbi.nlm.nih.gov"}, {"value": "10.1016/S1470-2045(15)00011-X", "system": "https://doi.org"}, {"type": {"text": "pii", "coding": [{"system": "http://terminology.hl7.org/CodeSystem/v2-0203", "code": "ACSN", "display": "Accession ID"}]}, "value": "S1470-2045(15)00011-X"}], "webLocation": [{"url": "https://pubmed.ncbi.nlm.nih.gov/26028518/", "classifier": [{"coding": [{"code": "abstract", "system": "http://terminology.hl7.org/CodeSystem/artifact-url-classifier", "display": "Abstract"}]}]}, {"url": "https://doi.org/10.1016/S1470-2045(15)00011-X", "classifier": [{"coding": [{"code": "doi-based", "system": "http://terminology.hl7.org/CodeSystem/artifact-url-classifier", "display": "DOI Based"}]}]}], "classification": [{"type": {"coding": [{"code": "publishing-model", "system": "http://terminology.hl7.org/CodeSystem/cited-artifact-classification-type", "display": "Publishing Model", "userSelected": false}]}, "classifier": [{"coding": [{"code": "Print-Electronic", "system": "http://terminology.hl7.org/CodeSystem/citation-artifact-classifier", "display": "Print Electronic", "userSelected": false}]}]}, {"type": {"coding": [{"code": "chemical", "system": "http://terminology.hl7.org/CodeSystem/cited-artifact-classification-type", "display": "Chemical", "userSelected": false}]}, "classifier": [{"coding": [{"code": "D000726", "system": "https://www.nlm.nih.gov/mesh", "display": "Androgen Antagonists", "userSelected": false}]}, {"coding": [{"code": "D043823", "system": "https://www.nlm.nih.gov/mesh", "display": "Taxoids", "userSelected": false}]}, {"coding": [{"code": "15H5577CQD", "system": "https://www.cas.org/support/documentation/chemical-substances", "userSelected": false}, {"code": "D000077143", "system": "https://www.nlm.nih.gov/mesh", "display": "Docetaxel", "userSelected": false}]}, {"coding": [{"code": "35LT29625A", "system": "https://www.cas.org/support/documentation/chemical-substances", "userSelected": false}, {"code": "D004961", "system": "https://www.nlm.nih.gov/mesh", "display": "Estramustine", "userSelected": false}]}, {"coding": [{"code": "EC 3.4.21.77", "system": "https://www.cas.org/support/documentation/chemical-substances", "userSelected": false}, {"code": "D017430", "system": "https://www.nlm.nih.gov/mesh", "display": "Prostate-Specific Antigen", "userSelected": false}]}]}, {"type": {"coding": [{"code": "mesh-heading", "system": "http://terminology.hl7.org/CodeSystem/cited-artifact-classification-type", "display": "MeSH heading"}]}, "artifactAssessment": [{"type": "ArtifactAssessment", "reference": "#meshHeading0"}]}, {"type": {"coding": [{"code": "publication-type", "system": "http://terminology.hl7.org/CodeSystem/cited-artifact-classification-type", "display": "Publication type"}]}, "classifier": [{"coding": [{"code": "D017428", "system": "https://www.nlm.nih.gov/mesh", "display": "Clinical Trial, Phase III", "userSelected": false}]}, {"coding": [{"code": "D003160", "system": "https://www.nlm.nih.gov/mesh", "display": "Comparative Study", "userSelected": false}]}, {"coding": [{"code": "D016428", "system": "https://www.nlm.nih.gov/mesh", "display": "Journal Article", "userSelected": false}]}, {"coding": [{"code": "D016448", "system": "https://www.nlm.nih.gov/mesh", "display": "Multicenter Study", "userSelected": false}]}, {"coding": [{"code": "D016449", "system": "https://www.nlm.nih.gov/mesh", "display": "Randomized Controlled Trial", "userSelected": false}]}, {"coding": [{"code": "D013485", "system": "https://www.nlm.nih.gov/mesh", "display": "Research Support, Non-U.S. Gov't", "userSelected": false}]}]}, {"type": {"coding": [{"code": "knowledge-artifact-type", "system": "http://terminology.hl7.org/CodeSystem/cited-artifact-classification-type", "display": "Knowledge Artifact Type", "userSelected": false}]}, "classifier": [{"coding": [{"code": "D016428", "system": "http://terminology.hl7.org/CodeSystem/citation-artifact-classifier", "display": "Journal Article", "userSelected": false}]}], "artifactAssessment": [{"display": "Classifier added by Computable Publishing LLC"}]}, {"type": {"coding": [{"code": "citation-subset", "system": "http://terminology.hl7.org/CodeSystem/cited-artifact-classification-type", "display": "Citation subset", "userSelected": false}]}, "classifier": [{"coding": [{"code": "IM", "system": "https://www.nlm.nih.gov/bsd/licensee/elements_descriptions.html#citationsubset", "display": "IM", "userSelected": false}]}]}], "contributorship": {"entry": [{"affiliation": [{"display": "Institut Gustave Roussy, Villejuif, France. Electronic address: karim.fizazi@gustaveroussy.fr."}], "contributor": {"type": "Practitioner", "display": "Fizazi K", "reference": "#contributor0"}, "forenameInitials": "K"}, {"affiliation": [{"display": "Institut Gustave Roussy, Villejuif, France."}], "contributor": {"type": "Practitioner", "display": "Faivre L", "reference": "#contributor1"}, "forenameInitials": "L"}, {"affiliation": [{"display": "Centre Fran\u00e7ois Baclesse, Caen, France."}], "contributor": {"type": "Practitioner", "display": "Lesaunier F", "reference": "#contributor2"}, "forenameInitials": "F"}, {"affiliation": [{"display": "Institut de Canc\u00e9rologie de l'Ouest, Angers, France."}], "contributor": {"type": "Practitioner", "display": "Delva R", "reference": "#contributor3"}, "forenameInitials": "R"}, {"affiliation": [{"display": "Institut Paoli Calmettes, Marseille, France."}], "contributor": {"type": "Practitioner", "display": "Gravis G", "reference": "#contributor4"}, "forenameInitials": "G"}, {"affiliation": [{"display": "Institut de Canc\u00e9rologie de l'Ouest, Nantes, France."}], "contributor": {"type": "Practitioner", "display": "Rolland F", "reference": "#contributor5"}, "forenameInitials": "F"}, {"affiliation": [{"display": "Centre Hospitalier D\u00e9partemental, La Roche-sur-Yon, France."}], "contributor": {"type": "Practitioner", "display": "Priou F", "reference": "#contributor6"}, "forenameInitials": "F"}, {"affiliation": [{"display": "Centre Antoine Lacassagne, Nice, France."}], "contributor": {"type": "Practitioner", "display": "Ferrero JM", "reference": "#contributor7"}, "forenameInitials": "JM"}, {"affiliation": [{"display": "Centre Hospitalier de Nimes, Nimes, France."}], "contributor": {"type": "Practitioner", "display": "Houede N", "reference": "#contributor8"}, "forenameInitials": "N"}, {"affiliation": [{"display": "Institut Claudius Regaud, Toulouse, France."}], "contributor": {"type": "Practitioner", "display": "Mourey L", "reference": "#contributor9"}, "forenameInitials": "L"}, {"affiliation": [{"display": "H\u00f4pital Foch, Paris, France."}], "contributor": {"type": "Practitioner", "display": "Theodore C", "reference": "#contributor10"}, "forenameInitials": "C"}, {"affiliation": [{"display": "Centre Alexis Vautrin, Nancy, France."}], "contributor": {"type": "Practitioner", "display": "Krakowski I", "reference": "#contributor11"}, "forenameInitials": "I"}, {"affiliation": [{"display": "Clinique Sainte-Marguerite, Hy\u00e8res, France."}], "contributor": {"type": "Practitioner", "display": "Berdah JF", "reference": "#contributor12"}, "forenameInitials": "JF"}, {"affiliation": [{"display": "Centre Hospitalier La Timone, Marseille, France."}], "contributor": {"type": "Practitioner", "display": "Baciuchka M", "reference": "#contributor13"}, "forenameInitials": "M"}, {"affiliation": [{"display": "Centre Eug\u00e8ne Marquis, Rennes, France."}], "contributor": {"type": "Practitioner", "display": "Laguerre B", "reference": "#contributor14"}, "forenameInitials": "B"}, {"affiliation": [{"display": "Centre L\u00e9on B\u00e9rard, Lyon, France."}], "contributor": {"type": "Practitioner", "display": "Fl\u00e9chon A", "reference": "#contributor15"}, "forenameInitials": "A"}, {"affiliation": [{"display": "H\u00f4pital Saint-Andr\u00e9, Bordeaux, France."}], "contributor": {"type": "Practitioner", "display": "Ravaud A", "reference": "#contributor16"}, "forenameInitials": "A"}, {"affiliation": [{"display": "Groupe Hospitalier Diaconesses Croix Saint-Simon, Paris, France."}], "contributor": {"type": "Practitioner", "display": "Cojean-Zelek I", "reference": "#contributor17"}, "forenameInitials": "I"}, {"affiliation": [{"display": "H\u00f4pital Europ\u00e9en Georges Pompidou, Paris, France."}], "contributor": {"type": "Practitioner", "display": "Oudard S", "reference": "#contributor18"}, "forenameInitials": "S"}, {"affiliation": [{"display": "CHU Dupuytren, Limoges, France."}], "contributor": {"type": "Practitioner", "display": "Labourey JL", "reference": "#contributor19"}, "forenameInitials": "JL"}, {"affiliation": [{"display": "Centre Henri Becquerel, Rouen, France."}], "contributor": {"type": "Practitioner", "display": "Chinet-Charrot P", "reference": "#contributor20"}, "forenameInitials": "P"}, {"affiliation": [{"display": "Centre M\u00e9dical Oncogard, Nimes, France."}], "contributor": {"type": "Practitioner", "display": "Legouffe E", "reference": "#contributor21"}, "forenameInitials": "E"}, {"affiliation": [{"display": "H\u00f4pital Henri-Mondor, Cr\u00e9teil, France."}], "contributor": {"type": "Practitioner", "display": "Lagrange JL", "reference": "#contributor22"}, "forenameInitials": "JL"}, {"affiliation": [{"display": "H\u00f4pital Bretonneau, Tours, France."}], "contributor": {"type": "Practitioner", "display": "Linassier C", "reference": "#contributor23"}, "forenameInitials": "C"}, {"affiliation": [{"display": "H\u00f4pital Saint-Joseph, Paris, France."}], "contributor": {"type": "Practitioner", "display": "Deplanque G", "reference": "#contributor24"}, "forenameInitials": "G"}, {"affiliation": [{"display": "Institut Curie, Paris, France."}], "contributor": {"type": "Practitioner", "display": "Beuzeboc P", "reference": "#contributor25"}, "forenameInitials": "P"}, {"affiliation": [{"display": "Clinique Sainte-Catherine, Avignon, France."}], "contributor": {"type": "Practitioner", "display": "Davin JL", "reference": "#contributor26"}, "forenameInitials": "JL"}, {"affiliation": [{"display": "Unicancer, Paris, France."}], "contributor": {"type": "Practitioner", "display": "Martin AL", "reference": "#contributor27"}, "forenameInitials": "AL"}, {"affiliation": [{"display": "Unicancer, Paris, France."}], "contributor": {"type": "Practitioner", "display": "Habibian M", "reference": "#contributor28"}, "forenameInitials": "M"}, {"affiliation": [{"display": "Institut Gustave Roussy, Villejuif, France."}], "contributor": {"type": "Practitioner", "display": "Laplanche A", "reference": "#contributor29"}, "forenameInitials": "A"}, {"affiliation": [{"display": "H\u00f4pital Saint-Louis, Paris, France."}], "contributor": {"type": "Practitioner", "display": "Culine S", "reference": "#contributor30"}, "forenameInitials": "S"}], "complete": true}, "publicationForm": [{"issue": "7", "volume": "16", "pageString": "787-94", "articleDate": "2015-07", "citedMedium": {"coding": [{"code": "internet", "system": "http://terminology.hl7.org/CodeSystem/cited-medium", "display": "Internet"}]}, "publishedIn": {"type": {"coding": [{"code": "D020492", "system": "http://terminology.hl7.org/CodeSystem/published-in-type", "display": "Periodical"}]}, "title": "The Lancet. Oncology", "identifier": [{"type": {"text": "Electronic ISSN Type", "coding": [{"code": "Electronic", "system": "https://www.nlm.nih.gov/bsd/licensee/elements_descriptions.html#issn", "display": "Electronic"}]}, "value": "1474-5488", "system": "https://portal.issn.org"}, {"type": {"text": "ISOAbbreviation", "coding": [{"system": "http://terminology.hl7.org/CodeSystem/v2-0203", "code": "XX", "display": "Organization identifier"}]}, "value": "Lancet Oncol", "system": "https://www.issn.org/services/online-services/access-to-the-ltwa/"}, {"type": {"text": "ISSN Linking", "coding": [{"system": "http://terminology.hl7.org/CodeSystem/v2-0203", "code": "XX", "display": "Organization identifier"}]}, "value": "1470-2045", "system": "https://www.issn.org/understanding-the-issn/assignment-rules/the-issn-l-for-publications-on-multiple-media/"}, {"type": {"text": "Medline Title Abbreviation", "coding": [{"system": "http://terminology.hl7.org/CodeSystem/v2-0203", "code": "XX", "display": "Organization identifier"}]}, "value": "Lancet Oncol", "system": "https://www.nlm.nih.gov/tsd/cataloging/contructitleabbre.html"}, {"type": {"text": "NLM Unique ID", "coding": [{"system": "http://terminology.hl7.org/CodeSystem/v2-0203", "code": "XX", "display": "Organization identifier"}]}, "value": "100957246", "system": "https://locatorplus.gov/cgi-bin/Pwebrecon.cgi?DB=local"}], "publisherLocation": "England"}}, {"articleDate": "2015-05-28", "citedMedium": {"coding": [{"code": "internet-without-issue", "system": "http://terminology.hl7.org/CodeSystem/cited-medium", "display": "Internet without issue"}]}}], "relatedIdentifier": [{"value": "NCT00055731", "system": "https://clinicaltrials.gov", "assigner": {"display": "ClinicalTrials.gov"}}]}, "classification": [{"type": {"coding": [{"code": "citation-source", "system": "http://terminology.hl7.org/CodeSystem/citation-classification-type", "display": "Citation Source"}]}, "classifier": [{"text": "MEDLINE"}]}, {"type": {"coding": [{"code": "medline-owner", "system": "http://terminology.hl7.org/CodeSystem/citation-classification-type", "display": "MEDLINE Citation Owner"}]}, "classifier": [{"coding": [{"code": "NLM", "system": "https://www.nlm.nih.gov/bsd/licensee/elements_descriptions.html#owner_value", "display": "National Library of Medicine, Index Section", "userSelected": false}]}]}], "lastReviewDate": "2024-08-05", "description": "This Citation Resource is referenced in an example for the EBMonFHIR Implementation Guide."}