{"id": "29812", "url": "https://fevir.net/resources/Citation/29812", "date": "2022-06-21T02:46:39.587Z", "meta": {"profile": ["http://hl7.org/fhir/uv/ebm/StructureDefinition/database-citation"], "versionId": "29", "lastUpdated": "2025-10-11T21:20:49.915Z"}, "title": "DatabaseCitation: Citation for FEvIR Platform", "author": [{"name": "Brian S. Alper"}], "status": "active", "contact": [{"telecom": [{"value": "support@computablepublishing.com", "system": "email"}]}], "summary": [{"text": "Fast Evidence Interoperability Resources (FEvIR) Platform [Database], version 1.0.0. Contributors: Computable Publishing LLC [Publisher];  Brian S Alper,  Khalid Shahin [Authors]. Published February 15, 2021. Revised September 09, 2025. Available at: https://fevir.net/.", "style": {"coding": [{"code": "comppub", "system": "http://hl7.org/fhir/citation-summary-style", "display": "Computable Publishing"}]}}, {"text": "Alper BS, Shahin K. Fast Evidence Interoperability Resources (FEvIR) Platform [Internet]. Version 1.0.0. Franklin (NC): Computable Publishing LLC. 2021 Feb 15 -  [updated 2025 Sep 9, cited 2025 Oct 9]. Available from: https://fevir.net/.", "style": {"text": "NLM"}}], "contained": [{"id": "contributor0", "name": "Computable Publishing LLC", "contact": [{"telecom": [{"value": "support@computablepublishing.com", "system": "email"}]}], "resourceType": "Organization"}, {"id": "contributor1", "name": [{"given": ["Brian S"], "family": "Alper"}], "identifier": [{"value": "0000-0003-4300-4928", "system": "https://orcid.org/"}], "resourceType": "Practitioner"}, {"id": "contributor2", "name": [{"given": ["Khalid"], "family": "Shahin"}], "identifier": [{"value": "0000-0002-3526-7667", "system": "https://orcid.org/"}], "resourceType": "Practitioner"}], "copyright": "https://creativecommons.org/licenses/by-nc-sa/4.0/", "extension": [{"url": "http://hl7.org/fhir/uv/ebm/StructureDefinition/artifact-publication-status", "valueCodeableConcept": {"coding": [{"code": "active", "system": "http://terminology.hl7.org/CodeSystem/cited-artifact-status-type", "display": "Active"}]}}], "publisher": "Computable Publishing LLC", "identifier": [{"type": {"text": "FEvIR Object Identifier", "coding": [{"code": "ACSN", "system": "http://terminology.hl7.org/CodeSystem/v2-0203", "display": "Accession ID"}]}, "value": "29812", "system": "https://fevir.net/FOI", "assigner": {"display": "Computable Publishing LLC"}}], "useContext": [{"code": {"code": "fevir-platform-use", "system": "http://terminology.hl7.org/CodeSystem/citation-classification-type", "display": "FEvIR Platform Use"}, "valueCodeableConcept": {"coding": [{"code": "project-specific", "system": "http://terminology.hl7.org/CodeSystem/citation-artifact-classifier", "display": "Project Specific"}]}}], "resourceType": "Citation", "citedArtifact": {"title": [{"text": "Fast Evidence Interoperability Resources (FEvIR) Platform", "type": [{"coding": [{"code": "official", "system": "http://terminology.hl7.org/CodeSystem/title-type", "display": "Official title"}]}]}, {"text": "FEvIR Platform", "type": [{"coding": [{"code": "short-title", "system": "http://terminology.hl7.org/CodeSystem/title-type", "display": "Short title"}]}]}], "version": {"value": "1.0.0"}, "webLocation": [{"url": "https://fevir.net/", "classifier": [{"coding": [{"code": "webpage", "system": "http://terminology.hl7.org/CodeSystem/artifact-url-classifier", "display": "Webpage"}]}, {"text": "Website"}]}, {"url": "https://fevir.net/resources/Project/29394", "classifier": [{"text": "{\"system\":\"https://fevir.net/resources/CodeSystem/179423\",\"code\":\"defined-in-text\",\"display\":\"Defined in text\"}"}, {"text": "Release Notes"}]}], "classification": [{"type": {"coding": [{"code": "knowledge-artifact-type", "system": "http://terminology.hl7.org/CodeSystem/cited-artifact-classification-type", "display": "Knowledge Artifact Type"}]}, "classifier": [{"coding": [{"code": "D019991", "system": "http://terminology.hl7.org/CodeSystem/citation-artifact-classifier", "display": "Database"}]}]}], "contributorship": {"entry": [{"role": {"coding": [{"code": "publisher", "system": "http://hl7.org/fhir/contributor-role", "display": "Publisher"}]}, "contributor": {"type": "Organization", "display": "Computable Publishing LLC", "reference": "#contributor0"}, "correspondingContact": true}, {"role": {"coding": [{"code": "author", "system": "http://hl7.org/fhir/contributor-role", "display": "Author/Creator"}]}, "affiliation": [{"display": "Computable Publishing LLC"}, {"display": "Scientific Knowledge Accelerator Foundation"}], "contributor": {"type": "Practitioner", "reference": "#contributor1"}, "contributionType": [{"coding": [{"code": "conceptualization", "system": "http://hl7.org/fhir/artifact-contribution-type", "display": "Conceptualization"}]}, {"coding": [{"code": "funding-acquisition", "system": "http://hl7.org/fhir/artifact-contribution-type", "display": "Funding acquisition"}]}, {"coding": [{"code": "project-administration", "system": "http://hl7.org/fhir/artifact-contribution-type", "display": "Project administration"}]}, {"coding": [{"code": "methodology", "system": "http://hl7.org/fhir/artifact-contribution-type", "display": "Methodology"}]}, {"coding": [{"code": "software", "system": "http://hl7.org/fhir/artifact-contribution-type", "display": "Software"}]}, {"coding": [{"code": "supervision", "system": "http://hl7.org/fhir/artifact-contribution-type", "display": "Supervision"}]}, {"coding": [{"code": "visualization", "system": "http://hl7.org/fhir/artifact-contribution-type", "display": "Visualization"}]}, {"coding": [{"code": "validation", "system": "http://hl7.org/fhir/artifact-contribution-type", "display": "Validation"}]}, {"coding": [{"code": "writing-review-editing", "system": "http://hl7.org/fhir/artifact-contribution-type", "display": "Writing - review & editing"}]}, {"coding": [{"code": "writing-original-draft", "system": "http://hl7.org/fhir/artifact-contribution-type", "display": "Writing - original draft"}]}], "forenameInitials": "BS"}, {"role": {"coding": [{"code": "author", "system": "http://hl7.org/fhir/contributor-role", "display": "Author/Creator"}]}, "affiliation": [{"display": "Computable Publishing LLC"}, {"display": "Scientific Knowledge Accelerator Foundation"}], "contributor": {"type": "Practitioner", "reference": "#contributor2"}, "contributionType": [{"coding": [{"code": "data-curation", "system": "http://hl7.org/fhir/artifact-contribution-type", "display": "Data curation"}]}, {"coding": [{"code": "formal-analysis", "system": "http://hl7.org/fhir/artifact-contribution-type", "display": "Formal analysis"}]}, {"coding": [{"code": "methodology", "system": "http://hl7.org/fhir/artifact-contribution-type", "display": "Methodology"}]}, {"coding": [{"code": "project-administration", "system": "http://hl7.org/fhir/artifact-contribution-type", "display": "Project administration"}]}, {"coding": [{"code": "software", "system": "http://hl7.org/fhir/artifact-contribution-type", "display": "Software"}]}, {"coding": [{"code": "validation", "system": "http://hl7.org/fhir/artifact-contribution-type", "display": "Validation"}]}, {"coding": [{"code": "visualization", "system": "http://hl7.org/fhir/artifact-contribution-type", "display": "Visualization"}]}, {"coding": [{"code": "writing-original-draft", "system": "http://hl7.org/fhir/artifact-contribution-type", "display": "Writing - original draft"}]}, {"coding": [{"code": "writing-review-editing", "system": "http://hl7.org/fhir/artifact-contribution-type", "display": "Writing - review & editing"}]}]}], "complete": true}, "publicationForm": [{"copyright": "\u00a9 2021-2025 Computable Publishing LLC, Patent Pending.", "articleDate": "2021-02-15", "citedMedium": {"coding": [{"code": "internet", "system": "http://terminology.hl7.org/CodeSystem/cited-medium", "display": "Internet"}]}, "publishedIn": {"publisher": {"type": "Organization", "display": "Computable Publishing LLC"}, "publisherLocation": "Franklin, NC, USA"}, "lastRevisionDate": "2025-09-09"}]}, "description": "This Citation Resource is referenced in an example for the EBMonFHIR Implementation Guide."}