{"id": "367878", "url": "https://fevir.net/resources/Citation/367878", "meta": {"profile": ["http://hl7.org/fhir/uv/ebm/StructureDefinition/journal-article-citation"], "versionId": "11", "lastUpdated": "2025-10-13T12:34:35.118Z"}, "title": "38584159 Efficacy and safety of a four-drug, quarter-dose treatment for hypertension: the QUARTET USA randomized trial.", "author": [{"name": "Computable Publishing\u00ae: MEDLINE-to-FEvIR Converter"}], "status": "active", "contact": [{"telecom": [{"value": "support@computablepublishing.com", "system": "email"}]}], "contained": [{"id": "keywords0", "content": [{"classifier": [{"text": "Federally qualified health centers"}]}, {"classifier": [{"text": "Hypertension"}]}, {"classifier": [{"text": "Quadpill"}]}, {"classifier": [{"text": "Randomized trial"}]}, {"classifier": [{"text": "Single pill combination"}]}], "resourceType": "ArtifactAssessment", "artifactReference": {"type": "Citation", "reference": "#"}}, {"id": "contributor0", "name": [{"given": ["Mark D"], "family": "Huffman"}], "resourceType": "Practitioner"}, {"id": "contributor1", "name": [{"given": ["Abigail S"], "family": "Baldridge"}], "resourceType": "Practitioner"}, {"id": "contributor2", "name": [{"given": ["Danielle"], "family": "Lazar"}], "resourceType": "Practitioner"}, {"id": "contributor3", "name": [{"given": ["Hiba"], "family": "Abbas"}], "resourceType": "Practitioner"}, {"id": "contributor4", "name": [{"given": ["Jairo"], "family": "Mejia"}], "resourceType": "Practitioner"}, {"id": "contributor5", "name": [{"given": ["Fallon M"], "family": "Flowers"}], "resourceType": "Practitioner"}, {"id": "contributor6", "name": [{"given": ["Adriana"], "family": "Quintana"}], "resourceType": "Practitioner"}, {"id": "contributor7", "name": [{"given": ["Alema"], "family": "Jackson"}], "resourceType": "Practitioner"}, {"id": "contributor8", "name": [{"given": ["Namratha R"], "family": "Kandula"}], "resourceType": "Practitioner"}, {"id": "contributor9", "name": [{"given": ["Donald M"], "family": "Lloyd-Jones"}], "resourceType": "Practitioner"}, {"id": "contributor10", "name": [{"given": ["Stephen D"], "family": "Persell"}], "resourceType": "Practitioner"}, {"id": "contributor11", "name": [{"given": ["Sadiya S"], "family": "Khan"}], "resourceType": "Practitioner"}, {"id": "contributor12", "name": [{"given": ["James J"], "family": "Paparello"}], "resourceType": "Practitioner"}, {"id": "contributor13", "name": [{"given": ["Aashima"], "family": "Chopra"}], "resourceType": "Practitioner"}, {"id": "contributor14", "name": [{"given": ["Priya"], "family": "Tripathi"}], "resourceType": "Practitioner"}, {"id": "contributor15", "name": [{"given": ["My H"], "family": "Vu"}], "resourceType": "Practitioner"}, {"id": "contributor16", "name": [{"given": ["Clara K"], "family": "Chow"}], "resourceType": "Practitioner"}, {"id": "contributor17", "name": [{"given": ["Jody D"], "family": "Ciolino"}], "resourceType": "Practitioner"}, {"id": "meshHeading0", "content": [{"type": {"text": "components (if present) include qualifier codings", "coding": [{"code": "mesh-heading", "system": "http://terminology.hl7.org/CodeSystem/cited-artifact-classification-type", "display": "MeSH heading"}]}, "component": [{"type": {"text": "qualifier"}, "classifier": [{"text": "is not a major topic"}]}], "classifier": [{"coding": [{"code": "D006801", "system": "https://www.nlm.nih.gov/mesh", "display": "Humans", "userSelected": false}]}], "freeToShare": true}, {"type": {"text": "components (if present) include qualifier codings", "coding": [{"code": "mesh-heading", "system": "http://terminology.hl7.org/CodeSystem/cited-artifact-classification-type", "display": "MeSH heading"}]}, "component": [{"type": {"text": "qualifier"}, "classifier": [{"text": "is not a major topic"}]}], "classifier": [{"coding": [{"code": "D005260", "system": "https://www.nlm.nih.gov/mesh", "display": "Female", "userSelected": false}]}], "freeToShare": true}, {"type": {"text": "components (if present) include qualifier codings", "coding": [{"code": "mesh-heading", "system": "http://terminology.hl7.org/CodeSystem/cited-artifact-classification-type", "display": "MeSH heading"}]}, "component": [{"type": {"text": "qualifier"}, "classifier": [{"text": "is not a major topic"}]}], "classifier": [{"coding": [{"code": "D008297", "system": "https://www.nlm.nih.gov/mesh", "display": "Male", "userSelected": false}]}], "freeToShare": true}, {"type": {"text": "components (if present) include qualifier codings", "coding": [{"code": "mesh-heading", "system": "http://terminology.hl7.org/CodeSystem/cited-artifact-classification-type", "display": "MeSH heading"}]}, "component": [{"type": {"text": "qualifier"}, "classifier": [{"text": "is Major topic"}]}, {"type": {"text": "qualifier"}, "component": [{"type": {"text": "is Major topic"}, "classifier": [{"coding": [{"code": "C49487", "system": "http://ncicb.nci.nih.gov/xml/owl/EVS/Thesaurus.owl", "display": "No"}]}]}], "classifier": [{"coding": [{"code": "Q000188", "system": "https://www.nlm.nih.gov/mesh", "display": "drug therapy"}]}]}], "classifier": [{"coding": [{"code": "D006973", "system": "https://www.nlm.nih.gov/mesh", "display": "Hypertension", "userSelected": false}]}], "freeToShare": true}, {"type": {"text": "components (if present) include qualifier codings", "coding": [{"code": "mesh-heading", "system": "http://terminology.hl7.org/CodeSystem/cited-artifact-classification-type", "display": "MeSH heading"}]}, "component": [{"type": {"text": "qualifier"}, "classifier": [{"text": "is not a major topic"}]}], "classifier": [{"coding": [{"code": "D008875", "system": "https://www.nlm.nih.gov/mesh", "display": "Middle Aged", "userSelected": false}]}], "freeToShare": true}, {"type": {"text": "components (if present) include qualifier codings", "coding": [{"code": "mesh-heading", "system": "http://terminology.hl7.org/CodeSystem/cited-artifact-classification-type", "display": "MeSH heading"}]}, "component": [{"type": {"text": "qualifier"}, "classifier": [{"text": "is Major topic"}]}], "classifier": [{"coding": [{"code": "D001713", "system": "https://www.nlm.nih.gov/mesh", "display": "Biphenyl Compounds", "userSelected": false}]}], "freeToShare": true}, {"type": {"text": "components (if present) include qualifier codings", "coding": [{"code": "mesh-heading", "system": "http://terminology.hl7.org/CodeSystem/cited-artifact-classification-type", "display": "MeSH heading"}]}, "component": [{"type": {"text": "qualifier"}, "classifier": [{"text": "is Major topic"}]}, {"type": {"text": "qualifier"}, "component": [{"type": {"text": "is Major topic"}, "classifier": [{"coding": [{"code": "C49487", "system": "http://ncicb.nci.nih.gov/xml/owl/EVS/Thesaurus.owl", "display": "No"}]}]}], "classifier": [{"coding": [{"code": "Q000627", "system": "https://www.nlm.nih.gov/mesh", "display": "therapeutic use"}]}]}, {"type": {"text": "qualifier"}, "component": [{"type": {"text": "is Major topic"}, "classifier": [{"coding": [{"code": "C49487", "system": "http://ncicb.nci.nih.gov/xml/owl/EVS/Thesaurus.owl", "display": "No"}]}]}], "classifier": [{"coding": [{"code": "Q000009", "system": "https://www.nlm.nih.gov/mesh", "display": "adverse effects"}]}]}, {"type": {"text": "qualifier"}, "component": [{"type": {"text": "is Major topic"}, "classifier": [{"coding": [{"code": "C49487", "system": "http://ncicb.nci.nih.gov/xml/owl/EVS/Thesaurus.owl", "display": "No"}]}]}], "classifier": [{"coding": [{"code": "Q000008", "system": "https://www.nlm.nih.gov/mesh", "display": "administration & dosage"}]}]}], "classifier": [{"coding": [{"code": "D000959", "system": "https://www.nlm.nih.gov/mesh", "display": "Antihypertensive Agents", "userSelected": false}]}], "freeToShare": true}, {"type": {"text": "components (if present) include qualifier codings", "coding": [{"code": "mesh-heading", "system": "http://terminology.hl7.org/CodeSystem/cited-artifact-classification-type", "display": "MeSH heading"}]}, "component": [{"type": {"text": "qualifier"}, "classifier": [{"text": "is not a major topic"}]}], "classifier": [{"coding": [{"code": "D004311", "system": "https://www.nlm.nih.gov/mesh", "display": "Double-Blind Method", "userSelected": false}]}], "freeToShare": true}, {"type": {"text": "components (if present) include qualifier codings", "coding": [{"code": "mesh-heading", "system": "http://terminology.hl7.org/CodeSystem/cited-artifact-classification-type", "display": "MeSH heading"}]}, "component": [{"type": {"text": "qualifier"}, "classifier": [{"text": "is Major topic"}]}, {"type": {"text": "qualifier"}, "component": [{"type": {"text": "is Major topic"}, "classifier": [{"coding": [{"code": "C49487", "system": "http://ncicb.nci.nih.gov/xml/owl/EVS/Thesaurus.owl", "display": "No"}]}]}], "classifier": [{"coding": [{"code": "Q000627", "system": "https://www.nlm.nih.gov/mesh", "display": "therapeutic use"}]}]}, {"type": {"text": "qualifier"}, "component": [{"type": {"text": "is Major topic"}, "classifier": [{"coding": [{"code": "C49487", "system": "http://ncicb.nci.nih.gov/xml/owl/EVS/Thesaurus.owl", "display": "No"}]}]}], "classifier": [{"coding": [{"code": "Q000009", "system": "https://www.nlm.nih.gov/mesh", "display": "adverse effects"}]}]}, {"type": {"text": "qualifier"}, "component": [{"type": {"text": "is Major topic"}, "classifier": [{"coding": [{"code": "C49487", "system": "http://ncicb.nci.nih.gov/xml/owl/EVS/Thesaurus.owl", "display": "No"}]}]}], "classifier": [{"coding": [{"code": "Q000008", "system": "https://www.nlm.nih.gov/mesh", "display": "administration & dosage"}]}]}], "classifier": [{"coding": [{"code": "D001562", "system": "https://www.nlm.nih.gov/mesh", "display": "Benzimidazoles", "userSelected": false}]}], "freeToShare": true}, {"type": {"text": "components (if present) include qualifier codings", "coding": [{"code": "mesh-heading", "system": "http://terminology.hl7.org/CodeSystem/cited-artifact-classification-type", "display": "MeSH heading"}]}, "component": [{"type": {"text": "qualifier"}, "classifier": [{"text": "is Major topic"}]}, {"type": {"text": "qualifier"}, "component": [{"type": {"text": "is Major topic"}, "classifier": [{"coding": [{"code": "C49487", "system": "http://ncicb.nci.nih.gov/xml/owl/EVS/Thesaurus.owl", "display": "No"}]}]}], "classifier": [{"coding": [{"code": "Q000008", "system": "https://www.nlm.nih.gov/mesh", "display": "administration & dosage"}]}]}, {"type": {"text": "qualifier"}, "component": [{"type": {"text": "is Major topic"}, "classifier": [{"coding": [{"code": "C49487", "system": "http://ncicb.nci.nih.gov/xml/owl/EVS/Thesaurus.owl", "display": "No"}]}]}], "classifier": [{"coding": [{"code": "Q000009", "system": "https://www.nlm.nih.gov/mesh", "display": "adverse effects"}]}]}, {"type": {"text": "qualifier"}, "component": [{"type": {"text": "is Major topic"}, "classifier": [{"coding": [{"code": "C49487", "system": "http://ncicb.nci.nih.gov/xml/owl/EVS/Thesaurus.owl", "display": "No"}]}]}], "classifier": [{"coding": [{"code": "Q000627", "system": "https://www.nlm.nih.gov/mesh", "display": "therapeutic use"}]}]}], "classifier": [{"coding": [{"code": "D017311", "system": "https://www.nlm.nih.gov/mesh", "display": "Amlodipine", "userSelected": false}]}], "freeToShare": true}, {"type": {"text": "components (if present) include qualifier codings", "coding": [{"code": "mesh-heading", "system": "http://terminology.hl7.org/CodeSystem/cited-artifact-classification-type", "display": "MeSH heading"}]}, "component": [{"type": {"text": "qualifier"}, "classifier": [{"text": "is Major topic"}]}, {"type": {"text": "qualifier"}, "component": [{"type": {"text": "is Major topic"}, "classifier": [{"coding": [{"code": "C49487", "system": "http://ncicb.nci.nih.gov/xml/owl/EVS/Thesaurus.owl", "display": "No"}]}]}], "classifier": [{"coding": [{"code": "Q000627", "system": "https://www.nlm.nih.gov/mesh", "display": "therapeutic use"}]}]}, {"type": {"text": "qualifier"}, "component": [{"type": {"text": "is Major topic"}, "classifier": [{"coding": [{"code": "C49487", "system": "http://ncicb.nci.nih.gov/xml/owl/EVS/Thesaurus.owl", "display": "No"}]}]}], "classifier": [{"coding": [{"code": "Q000009", "system": "https://www.nlm.nih.gov/mesh", "display": "adverse effects"}]}]}, {"type": {"text": "qualifier"}, "component": [{"type": {"text": "is Major topic"}, "classifier": [{"coding": [{"code": "C49487", "system": "http://ncicb.nci.nih.gov/xml/owl/EVS/Thesaurus.owl", "display": "No"}]}]}], "classifier": [{"coding": [{"code": "Q000008", "system": "https://www.nlm.nih.gov/mesh", "display": "administration & dosage"}]}]}], "classifier": [{"coding": [{"code": "D013777", "system": "https://www.nlm.nih.gov/mesh", "display": "Tetrazoles", "userSelected": false}]}], "freeToShare": true}, {"type": {"text": "components (if present) include qualifier codings", "coding": [{"code": "mesh-heading", "system": "http://terminology.hl7.org/CodeSystem/cited-artifact-classification-type", "display": "MeSH heading"}]}, "component": [{"type": {"text": "qualifier"}, "classifier": [{"text": "is Major topic"}]}, {"type": {"text": "qualifier"}, "component": [{"type": {"text": "is Major topic"}, "classifier": [{"coding": [{"code": "C49487", "system": "http://ncicb.nci.nih.gov/xml/owl/EVS/Thesaurus.owl", "display": "No"}]}]}], "classifier": [{"coding": [{"code": "Q000187", "system": "https://www.nlm.nih.gov/mesh", "display": "drug effects"}]}]}], "classifier": [{"coding": [{"code": "D001794", "system": "https://www.nlm.nih.gov/mesh", "display": "Blood Pressure", "userSelected": false}]}], "freeToShare": true}, {"type": {"text": "components (if present) include qualifier codings", "coding": [{"code": "mesh-heading", "system": "http://terminology.hl7.org/CodeSystem/cited-artifact-classification-type", "display": "MeSH heading"}]}, "component": [{"type": {"text": "qualifier"}, "classifier": [{"text": "is not a major topic"}]}], "classifier": [{"coding": [{"code": "D000368", "system": "https://www.nlm.nih.gov/mesh", "display": "Aged", "userSelected": false}]}], "freeToShare": true}, {"type": {"text": "components (if present) include qualifier codings", "coding": [{"code": "mesh-heading", "system": "http://terminology.hl7.org/CodeSystem/cited-artifact-classification-type", "display": "MeSH heading"}]}, "component": [{"type": {"text": "qualifier"}, "classifier": [{"text": "is not a major topic"}]}], "classifier": [{"coding": [{"code": "D016896", "system": "https://www.nlm.nih.gov/mesh", "display": "Treatment Outcome", "userSelected": false}]}], "freeToShare": true}, {"type": {"text": "components (if present) include qualifier codings", "coding": [{"code": "mesh-heading", "system": "http://terminology.hl7.org/CodeSystem/cited-artifact-classification-type", "display": "MeSH heading"}]}, "component": [{"type": {"text": "qualifier"}, "classifier": [{"text": "is Major topic"}]}, {"type": {"text": "qualifier"}, "component": [{"type": {"text": "is Major topic"}, "classifier": [{"coding": [{"code": "C49487", "system": "http://ncicb.nci.nih.gov/xml/owl/EVS/Thesaurus.owl", "display": "No"}]}]}], "classifier": [{"coding": [{"code": "Q000627", "system": "https://www.nlm.nih.gov/mesh", "display": "therapeutic use"}]}]}, {"type": {"text": "qualifier"}, "component": [{"type": {"text": "is Major topic"}, "classifier": [{"coding": [{"code": "C49487", "system": "http://ncicb.nci.nih.gov/xml/owl/EVS/Thesaurus.owl", "display": "No"}]}]}], "classifier": [{"coding": [{"code": "Q000008", "system": "https://www.nlm.nih.gov/mesh", "display": "administration & dosage"}]}]}], "classifier": [{"coding": [{"code": "D017298", "system": "https://www.nlm.nih.gov/mesh", "display": "Bisoprolol", "userSelected": false}]}], "freeToShare": true}, {"type": {"text": "components (if present) include qualifier codings", "coding": [{"code": "mesh-heading", "system": "http://terminology.hl7.org/CodeSystem/cited-artifact-classification-type", "display": "MeSH heading"}]}, "component": [{"type": {"text": "qualifier"}, "classifier": [{"text": "is not a major topic"}]}, {"type": {"text": "qualifier"}, "component": [{"type": {"text": "is Major topic"}, "classifier": [{"coding": [{"code": "C49487", "system": "http://ncicb.nci.nih.gov/xml/owl/EVS/Thesaurus.owl", "display": "No"}]}]}], "classifier": [{"coding": [{"code": "Q000627", "system": "https://www.nlm.nih.gov/mesh", "display": "therapeutic use"}]}]}, {"type": {"text": "qualifier"}, "component": [{"type": {"text": "is Major topic"}, "classifier": [{"coding": [{"code": "C49487", "system": "http://ncicb.nci.nih.gov/xml/owl/EVS/Thesaurus.owl", "display": "No"}]}]}], "classifier": [{"coding": [{"code": "Q000008", "system": "https://www.nlm.nih.gov/mesh", "display": "administration & dosage"}]}]}, {"type": {"text": "qualifier"}, "component": [{"type": {"text": "is Major topic"}, "classifier": [{"coding": [{"code": "C49487", "system": "http://ncicb.nci.nih.gov/xml/owl/EVS/Thesaurus.owl", "display": "No"}]}]}], "classifier": [{"coding": [{"code": "Q000009", "system": "https://www.nlm.nih.gov/mesh", "display": "adverse effects"}]}]}], "classifier": [{"coding": [{"code": "D007190", "system": "https://www.nlm.nih.gov/mesh", "display": "Indapamide", "userSelected": false}]}], "freeToShare": true}, {"type": {"text": "components (if present) include qualifier codings", "coding": [{"code": "mesh-heading", "system": "http://terminology.hl7.org/CodeSystem/cited-artifact-classification-type", "display": "MeSH heading"}]}, "component": [{"type": {"text": "qualifier"}, "classifier": [{"text": "is not a major topic"}]}], "classifier": [{"coding": [{"code": "D000328", "system": "https://www.nlm.nih.gov/mesh", "display": "Adult", "userSelected": false}]}], "freeToShare": true}, {"type": {"text": "components (if present) include qualifier codings", "coding": [{"code": "mesh-heading", "system": "http://terminology.hl7.org/CodeSystem/cited-artifact-classification-type", "display": "MeSH heading"}]}, "component": [{"type": {"text": "qualifier"}, "classifier": [{"text": "is not a major topic"}]}], "classifier": [{"coding": [{"code": "D004359", "system": "https://www.nlm.nih.gov/mesh", "display": "Drug Therapy, Combination", "userSelected": false}]}], "freeToShare": true}], "resourceType": "ArtifactAssessment", "artifactReference": {"type": "Citation", "reference": "#"}}], "copyright": "https://creativecommons.org/licenses/by-nc-sa/4.0/", "extension": [{"url": "http://hl7.org/fhir/uv/ebm/StructureDefinition/artifact-publication-status", "valueCodeableConcept": {"coding": [{"code": "active", "system": "http://terminology.hl7.org/CodeSystem/cited-artifact-status-type", "display": "Active"}]}}], "publisher": "Computable Publishing LLC", "identifier": [{"type": {"text": "FEvIR Object Identifier", "coding": [{"system": "http://terminology.hl7.org/CodeSystem/v2-0203", "code": "ACSN", "display": "Accession ID"}]}, "value": "367878", "system": "https://fevir.net/FOI", "assigner": {"display": "Computable Publishing LLC"}}, {"value": "38584159", "system": "https://pubmed.ncbi.nlm.nih.gov"}], "statusDate": [{"period": {"end": "2024-01-19"}, "activity": {"coding": [{"code": "pubmed-pubstatus-received", "system": "http://hl7.org/fhir/citation-status-type", "display": "PubMed Pubstatus of Received"}]}}, {"period": {"end": "2024-03-01"}, "activity": {"coding": [{"code": "pubmed-pubstatus-accepted", "system": "http://hl7.org/fhir/citation-status-type", "display": "PubMed Pubstatus of Accepted"}]}}, {"period": {"end": "2024-02-23"}, "activity": {"coding": [{"code": "pubmed-pubstatus-revised", "system": "http://hl7.org/fhir/citation-status-type", "display": "PubMed Pubstatus of Revised"}]}}, {"period": {"end": "2024-06-05T02:18:00.000Z"}, "activity": {"coding": [{"code": "pubmed-pubstatus-medline", "system": "http://hl7.org/fhir/citation-status-type", "display": "PubMed Pubstatus of Medline"}]}}, {"period": {"end": "2024-04-08T00:42:00.000Z"}, "activity": {"coding": [{"code": "pubmed-pubstatus-pubmed", "system": "http://hl7.org/fhir/citation-status-type", "display": "PubMed Pubstatus of Pubmed"}]}}, {"period": {"end": "2024-04-07T23:04:00.000Z"}, "activity": {"coding": [{"code": "pubmed-pubstatus-entrez", "system": "http://hl7.org/fhir/citation-status-type", "display": "PubMed Pubstatus of Entrez"}]}}, {"period": {"end": "2024-04-08"}, "activity": {"coding": [{"code": "pubmed-pubstatus-pmc-release", "system": "http://hl7.org/fhir/citation-status-type", "display": "PubMed Pubstatus of PMC release"}]}}], "useContext": [{"code": {"code": "fevir-platform-use", "system": "http://terminology.hl7.org/CodeSystem/citation-classification-type", "display": "FEvIR Platform Use"}, "valueCodeableConcept": {"coding": [{"code": "medline-base", "system": "http://terminology.hl7.org/CodeSystem/citation-artifact-classifier", "display": "Medline Base", "userSelected": false}]}}], "approvalDate": "2024-06-04", "currentState": [{"coding": [{"code": "medline-medline", "system": "http://hl7.org/fhir/citation-status-type", "display": "Medline Citation Status of Medline"}]}, {"coding": [{"code": "pubmed-publication-status-ppublish", "system": "http://hl7.org/fhir/citation-status-type", "display": "PubMed PublicationStatus of ppublish"}]}], "resourceType": "Citation", "citedArtifact": {"title": [{"text": "Efficacy and safety of a four-drug, quarter-dose treatment for hypertension: the QUARTET USA randomized trial.", "type": [{"coding": [{"code": "primary", "system": "http://terminology.hl7.org/CodeSystem/title-type", "display": "Primary title"}]}], "language": {"coding": [{"system": "urn:ietf:bcp:47", "code": "en", "display": "English"}]}}], "abstract": [{"text": "New approaches are needed to lower blood pressure (BP) given persistently low control rates. QUARTET USA sought to evaluate the effect of four-drug, quarter-dose BP lowering combination in patients with hypertension. QUARTET USA was a randomized (1:1), double-blinded trial conducted in federally qualified health centers among adults with hypertension. Participants received either a quadpill of candesartan 2\u2009mg, amlodipine 1.25\u2009mg, indapamide 0.625\u2009mg, and bisoprolol 2.5\u2009mg or candesartan 8\u2009mg for 12 weeks. If BP was &gt;130/&gt;80\u2009mm Hg at 6 weeks in either arm, then participants received open label add-on amlodipine 5\u2009mg. The primary outcome was mean change in systolic blood pressure (SBP) at 12 weeks, controlling for baseline BP. Secondary outcomes included mean change in diastolic blood pressure (DBP), and safety included serious adverse events, relevant adverse drug effects, and electrolyte abnormalities. Among 62 participants randomized between August 2019-May 2022 (n\u2009=\u200932 intervention, n\u2009=\u200930 control), mean (SD) age was 52 (11.5) years, 45% were female, 73% identified as Hispanic, and 18% identified as Black. Baseline mean (SD) SBP was 138.1 (11.2) mmHg, and baseline mean (SD) DBP was 84.3 (10.5) mmHg. In a modified intention-to-treat analysis, there was no significant difference in SBP (-4.8\u2009mm Hg [95% CI: -10.8, 1.3, p\u2009=\u20090.123] and a -4.9\u2009mmHg (95% CI: -8.6, -1.3, p\u2009=\u20090.009) greater mean DBP change in the intervention arm compared with the control arm at 12 weeks. Adverse events did not differ significantly between arms. The quadpill had a similar SBP and greater DBP lowering effect compared with candesartan 8\u2009mg. Trial registration number: NCT03640312.", "type": {"coding": [{"code": "primary-human-use", "system": "http://terminology.hl7.org/CodeSystem/cited-artifact-abstract-type", "display": "Primary human use"}]}, "copyright": "\u00a9 2024. The Author(s)."}], "relatesTo": [{"type": "cites", "citation": "NCD-Risk Factor Collaborators. Zhou B, Carrillo-Larco RM, Danaei G, Riley LM, Paciorek CJ, et al. Worldwide trends in hypertension prevalence and progress in treatment and control from 1990 to 2019: a pooled analysis of 1201 population-representative studies with 104 million participants. Lancet. 2021;398:957\u201380. doi: 10.1016/S0140-6736(21)01330-1.", "classifier": [{"coding": [{"code": "D016428", "system": "http://hl7.org/fhir/citation-artifact-classifier", "display": "Journal Article"}]}], "targetReference": {"type": "Citation", "reference": "https://pubmed.ncbi.nlm.nih.gov/34450083/", "identifier": {"value": "34450083", "system": "https://pubmed.ncbi.nlm.nih.gov", "assigner": {"display": "NLM"}}}}, {"type": "cites", "citation": "Muntner P, Miles MA, Jaeger BC, Hannon Iii L, Hardy ST, Ostchega Y, et al. Blood pressure control among US adults, 2009 to 2012 through 2017 to 2020. Hypertension. 2022;79:1971\u201380. doi: 10.1161/HYPERTENSIONAHA.122.19222.", "classifier": [{"coding": [{"code": "D016428", "system": "http://hl7.org/fhir/citation-artifact-classifier", "display": "Journal Article"}]}], "targetReference": {"type": "Citation", "reference": "https://pubmed.ncbi.nlm.nih.gov/35616029/", "identifier": {"value": "35616029", "system": "https://pubmed.ncbi.nlm.nih.gov", "assigner": {"display": "NLM"}}}}, {"type": "cites", "citation": "Whelton PK, Carey RM, Aronow WS, Casey DE, Collins KJ, Dennison-Himmelfarb C, et al. 2017 ACC/AHA/AAPA/ABC/ACPM/AGS/APhA/ASH/ASPC/NMA/PCNA Guideline for the prevention, detection, evaluation, and management of high blood pressure in adults: a report of the American College of Cardiology/American Heart Association Task Force on Clinical Practice Guidelines. J Am Coll Cardiol. 2017;71:e127\u2013e248. doi: 10.1016/j.jacc.2017.11.006.", "classifier": [{"coding": [{"code": "D016428", "system": "http://hl7.org/fhir/citation-artifact-classifier", "display": "Journal Article"}]}], "targetReference": {"type": "Citation", "reference": "https://pubmed.ncbi.nlm.nih.gov/29146535/", "identifier": {"value": "29146535", "system": "https://pubmed.ncbi.nlm.nih.gov", "assigner": {"display": "NLM"}}}}, {"type": "cites", "citation": "Williams B, Mancia G, Spiering W, Rosei EA, Azizi M, Burnier M, et al. 2018 ESC/ESH Guidelines for the management of arterial hypertension. Eur Heart J. 2018;39:3021\u2013104. doi: 10.1093/eurheartj/ehy339.", "classifier": [{"coding": [{"code": "D016428", "system": "http://hl7.org/fhir/citation-artifact-classifier", "display": "Journal Article"}]}], "targetReference": {"type": "Citation", "reference": "https://pubmed.ncbi.nlm.nih.gov/30165516/", "identifier": {"value": "30165516", "system": "https://pubmed.ncbi.nlm.nih.gov", "assigner": {"display": "NLM"}}}}, {"type": "cites", "citation": "World Health Organization. Guideline for the pharmacological treatment of hypertension in adults. WHO Report: Geneva; 2021.", "classifier": [{"coding": [{"code": "D016428", "system": "http://hl7.org/fhir/citation-artifact-classifier", "display": "Journal Article"}]}], "targetReference": {"type": "Citation", "reference": "https://pubmed.ncbi.nlm.nih.gov/34495610/", "identifier": {"value": "34495610", "system": "https://pubmed.ncbi.nlm.nih.gov", "assigner": {"display": "NLM"}}}}, {"type": "cites", "citation": "Tsao CW, Aday AW, Almarzooq ZI, Anderson CAM, Arora P, Avery CL, et al. Heart disease and stroke statistics\u20142023 update: a report from the American Heart Association. Circulation. 2023;147:e93\u2013e621. doi: 10.1161/CIR.0000000000001123.", "classifier": [{"coding": [{"code": "D016428", "system": "http://hl7.org/fhir/citation-artifact-classifier", "display": "Journal Article"}]}], "targetReference": {"type": "Citation", "reference": "https://pubmed.ncbi.nlm.nih.gov/36695182/", "identifier": {"value": "36695182", "system": "https://pubmed.ncbi.nlm.nih.gov", "assigner": {"display": "NLM"}}}}, {"type": "cites", "citation": "Chow CK, Gupta R. Blood pressure control: a challenge to global health systems. Lancet. 2019;394:613\u20135. doi: 10.1016/S0140-6736(19)31293-0.", "classifier": [{"coding": [{"code": "D016428", "system": "http://hl7.org/fhir/citation-artifact-classifier", "display": "Journal Article"}]}], "targetReference": {"type": "Citation", "reference": "https://pubmed.ncbi.nlm.nih.gov/31327567/", "identifier": {"value": "31327567", "system": "https://pubmed.ncbi.nlm.nih.gov", "assigner": {"display": "NLM"}}}}, {"type": "cites", "citation": "Derington CG, King JB, Herrick JS, Shimbo D, Kronish IM, Saseen JJ, et al. Trends in antihypertensive medication monotherapy and combination use among US adults, National Health and Nutrition Examination Survey 2005\u20132016. Hypertension. 2020;75:973\u201381. doi: 10.1161/HYPERTENSIONAHA.119.14360.", "classifier": [{"coding": [{"code": "D016428", "system": "http://hl7.org/fhir/citation-artifact-classifier", "display": "Journal Article"}]}], "targetReference": {"type": "Citation", "reference": "https://pubmed.ncbi.nlm.nih.gov/32148129/", "identifier": {"value": "32148129", "system": "https://pubmed.ncbi.nlm.nih.gov", "assigner": {"display": "NLM"}}}}, {"type": "cites", "citation": "Olomu A, Khan NNS, Todem D, Huang Q, Bottu S, Qadri S, et al. Blood pressure control in hypertensive patients in federally qualified health centers. Mdm Policy Pr. 2016;1:2381468316656010.", "classifier": [{"coding": [{"code": "D016428", "system": "http://hl7.org/fhir/citation-artifact-classifier", "display": "Journal Article"}]}], "targetReference": {"type": "Citation", "reference": "https://pubmed.ncbi.nlm.nih.gov/30288401/", "identifier": {"value": "30288401", "system": "https://pubmed.ncbi.nlm.nih.gov", "assigner": {"display": "NLM"}}}}, {"type": "cites", "citation": "Law MR, Wald NJ, Morris JK, Jordan RE. Value of low dose combination treatment with blood pressure lowering drugs: analysis of 354 randomised trials. BMJ. 2003;326:1427\u201331. doi: 10.1136/bmj.326.7404.1427.", "classifier": [{"coding": [{"code": "D016428", "system": "http://hl7.org/fhir/citation-artifact-classifier", "display": "Journal Article"}]}], "targetReference": {"type": "Citation", "reference": "https://pubmed.ncbi.nlm.nih.gov/12829555/", "identifier": {"value": "12829555", "system": "https://pubmed.ncbi.nlm.nih.gov", "assigner": {"display": "NLM"}}}}, {"type": "cites", "citation": "Bennett A, Chow CK, Chou M, Dehbi H-M, Webster R, Salam A, et al. Efficacy and safety of quarter-dose blood pressure-lowering agents: a systematic review and meta-analysis of randomized controlled trials. Hypertension. 2017;70:85\u201393. doi: 10.1161/HYPERTENSIONAHA.117.09202.", "classifier": [{"coding": [{"code": "D016428", "system": "http://hl7.org/fhir/citation-artifact-classifier", "display": "Journal Article"}]}], "targetReference": {"type": "Citation", "reference": "https://pubmed.ncbi.nlm.nih.gov/28584013/", "identifier": {"value": "28584013", "system": "https://pubmed.ncbi.nlm.nih.gov", "assigner": {"display": "NLM"}}}}, {"type": "cites", "citation": "Salam A, Huffman MD, Kanukula R, Prasad EH, Sharma A, Heller DJ, et al. Two\u2010drug fixed\u2010dose combinations of blood pressure\u2010lowering drugs as WHO essential medicines: an overview of efficacy, safety, and cost. J Clin Hypertens. 2020;22:1769\u201379. doi: 10.1111/jch.14009.", "classifier": [{"coding": [{"code": "D016428", "system": "http://hl7.org/fhir/citation-artifact-classifier", "display": "Journal Article"}]}], "targetReference": {"type": "Citation", "reference": "https://pubmed.ncbi.nlm.nih.gov/32815663/", "identifier": {"value": "32815663", "system": "https://pubmed.ncbi.nlm.nih.gov", "assigner": {"display": "NLM"}}}}, {"type": "cites", "citation": "Salam A, Atkins ER, Hsu B, Webster R, Patel A, Rodgers A. Efficacy and safety of triple versus dual combination blood pressure-lowering drug therapy. J Hypertens. 2019;37:1567\u201373. doi: 10.1097/HJH.0000000000002089.", "classifier": [{"coding": [{"code": "D016428", "system": "http://hl7.org/fhir/citation-artifact-classifier", "display": "Journal Article"}]}], "targetReference": {"type": "Citation", "reference": "https://pubmed.ncbi.nlm.nih.gov/31058799/", "identifier": {"value": "31058799", "system": "https://pubmed.ncbi.nlm.nih.gov", "assigner": {"display": "NLM"}}}}, {"type": "cites", "citation": "Parati G, Kjeldsen S, Coca A, Cushman WC, Wang J. Adherence to single-pill versus free-equivalent combination therapy in hypertension. Hypertension. 2021;77:692\u2013705. doi: 10.1161/HYPERTENSIONAHA.120.15781.", "classifier": [{"coding": [{"code": "D016428", "system": "http://hl7.org/fhir/citation-artifact-classifier", "display": "Journal Article"}]}], "targetReference": {"type": "Citation", "reference": "https://pubmed.ncbi.nlm.nih.gov/33390044/", "identifier": {"value": "33390044", "system": "https://pubmed.ncbi.nlm.nih.gov", "assigner": {"display": "NLM"}}}}, {"type": "cites", "citation": "Chow CK, Atkins ER, Hillis GS, Nelson MR, Reid CM, Schlaich MP, et al. Initial treatment with a single pill containing quadruple combination of quarter doses of blood pressure medicines versus standard dose monotherapy in patients with hypertension (QUARTET): a phase 3, randomised, double-blind, active-controlled trial. Lancet. 2021;398:1043\u201352. doi: 10.1016/S0140-6736(21)01922-X.", "classifier": [{"coding": [{"code": "D016428", "system": "http://hl7.org/fhir/citation-artifact-classifier", "display": "Journal Article"}]}], "targetReference": {"type": "Citation", "reference": "https://pubmed.ncbi.nlm.nih.gov/34469767/", "identifier": {"value": "34469767", "system": "https://pubmed.ncbi.nlm.nih.gov", "assigner": {"display": "NLM"}}}}, {"type": "cites", "citation": "Park IU, Taylor AL. Race and ethnicity in trials of antihypertensive therapy to prevent cardiovascular outcomes: a systematic review. Ann Fam Med. 2007;5:444\u2013452. doi: 10.1370/afm.708.", "classifier": [{"coding": [{"code": "D016428", "system": "http://hl7.org/fhir/citation-artifact-classifier", "display": "Journal Article"}]}], "targetReference": {"type": "Citation", "reference": "https://pubmed.ncbi.nlm.nih.gov/17893387/", "identifier": {"value": "17893387", "system": "https://pubmed.ncbi.nlm.nih.gov", "assigner": {"display": "NLM"}}}}, {"type": "cites", "citation": "Baldridge AS, Huffman MD, Lazar D, Abbas H, Flowers FM, Quintana A, et al. Efficacy and safety of a quadruple ultra-low-dose treatment for hypertension (QUARTET USA): rationale and design for a randomized controlled trial. Am Heart J. 2022;254:183\u201393. doi: 10.1016/j.ahj.2022.09.004.", "classifier": [{"coding": [{"code": "D016428", "system": "http://hl7.org/fhir/citation-artifact-classifier", "display": "Journal Article"}]}], "targetReference": {"type": "Citation", "reference": "https://pubmed.ncbi.nlm.nih.gov/36116516/", "identifier": {"value": "36116516", "system": "https://pubmed.ncbi.nlm.nih.gov", "assigner": {"display": "NLM"}}}}, {"type": "cites", "citation": "Sanuade OA, Jacobson TA, Quintana A, Flowers FM, Abbasi H, Vu MH, et al. Process evaluation of a double blind randomized controlled trial to assess the efficacy and safety of a quadruple ultra-low-dose treatment for hypertension within a federally qualified health center network (QUARTET USA) J Am Heart Assoc. 2024;13:e032236. doi: 10.1161/JAHA.123.032236.", "classifier": [{"coding": [{"code": "D016428", "system": "http://hl7.org/fhir/citation-artifact-classifier", "display": "Journal Article"}]}], "targetReference": {"type": "Citation", "reference": "https://pubmed.ncbi.nlm.nih.gov/38156601/", "identifier": {"value": "38156601", "system": "https://pubmed.ncbi.nlm.nih.gov", "assigner": {"display": "NLM"}}}}, {"type": "cites", "citation": "Weiss BD. Quick assessment of literacy in primary care: the Newest Vital Sign. Ann Fam Med. 2005;3:514\u201322. doi: 10.1370/afm.405.", "classifier": [{"coding": [{"code": "D016428", "system": "http://hl7.org/fhir/citation-artifact-classifier", "display": "Journal Article"}]}], "targetReference": {"type": "Citation", "reference": "https://pubmed.ncbi.nlm.nih.gov/16338915/", "identifier": {"value": "16338915", "system": "https://pubmed.ncbi.nlm.nih.gov", "assigner": {"display": "NLM"}}}}, {"type": "cites", "citation": "Medical Dictionary for Regulatory Activities. International Council for Harmonization of Technical Requirements for Pharmaceuticals for Human Use (ICH). Available from: https://www.ich.org/page/meddra. Accessed January 9, 2024."}, {"type": "cites", "citation": "Campbell NRC, Burnens MP, Whelton PK, Angell SY, Jaffe MG, Cohn J, et al. 2021 World Health Organization guideline on pharmacological treatment of hypertension: policy implications for the region of the Americas. Lancet Regional Heal - Am. 2022;9:100219. doi: 10.1016/j.lana.2022.100219.", "classifier": [{"coding": [{"code": "D016428", "system": "http://hl7.org/fhir/citation-artifact-classifier", "display": "Journal Article"}]}], "targetReference": {"type": "Citation", "reference": "https://pubmed.ncbi.nlm.nih.gov/35711684/", "identifier": {"value": "35711684", "system": "https://pubmed.ncbi.nlm.nih.gov", "assigner": {"display": "NLM"}}}}, {"type": "cites", "citation": "Wright JT, Jr, Williamson JD, Whelton PK, Snyder JK, Sink KM, Rocco MV, et al. A randomized trial of intensive versus standard blood-pressure control. N Engl J Med. 2015;373:2103\u201316. doi: 10.1056/NEJMoa1511939.", "classifier": [{"coding": [{"code": "D016428", "system": "http://hl7.org/fhir/citation-artifact-classifier", "display": "Journal Article"}]}], "targetReference": {"type": "Citation", "reference": "https://pubmed.ncbi.nlm.nih.gov/26551272/", "identifier": {"value": "26551272", "system": "https://pubmed.ncbi.nlm.nih.gov", "assigner": {"display": "NLM"}}}}, {"type": "cites", "citation": "National Association of Community Health Centers. America\u2019s health centers fact sheet, August 2022. Available from: https://www.nachc.org/wp-content/uploads/2022/08/Americas-Health-Centers-2022_final.pdf. Accessed January 9, 2024."}, {"type": "cites", "citation": "Zheutlin AR, Caldwell D, Anstey DE, Conroy MB, Ogedegbe O, Bress AP. Trends in hypertension clinical trials focused on interventions specific for Black adults: an analysis of clinicaltrials.gov. J Am Hear Assoc. 2020;9:e018512. doi: 10.1161/JAHA.120.018512.", "classifier": [{"coding": [{"code": "D016428", "system": "http://hl7.org/fhir/citation-artifact-classifier", "display": "Journal Article"}]}], "targetReference": {"type": "Citation", "reference": "https://pubmed.ncbi.nlm.nih.gov/33280494/", "identifier": {"value": "33280494", "system": "https://pubmed.ncbi.nlm.nih.gov", "assigner": {"display": "NLM"}}}}, {"type": "cites", "citation": "Mueller M, Purnell TS, Mensah GA, Cooper LA. Reducing racial and ethnic disparities in hypertension prevention and control: what will it take to translate research into practice and policy? Am J Hypertens. 2014;28:699\u2013716. doi: 10.1093/ajh/hpu233.", "classifier": [{"coding": [{"code": "D016428", "system": "http://hl7.org/fhir/citation-artifact-classifier", "display": "Journal Article"}]}], "targetReference": {"type": "Citation", "reference": "https://pubmed.ncbi.nlm.nih.gov/25498998/", "identifier": {"value": "25498998", "system": "https://pubmed.ncbi.nlm.nih.gov", "assigner": {"display": "NLM"}}}}, {"type": "cites", "citation": "Wang, Salam N, Webster A, Silva R, de A, Guggilla R, Stepien S, et al. Association of low-dose triple combination therapy with therapeutic inertia and prescribing patterns in patients with hypertension: a secondary analysis of the TRIUMPH trial. JAMA Cardiol. 2020;5:1219\u201326. doi: 10.1001/jamacardio.2020.2739.", "classifier": [{"coding": [{"code": "D016428", "system": "http://hl7.org/fhir/citation-artifact-classifier", "display": "Journal Article"}]}], "targetReference": {"type": "Citation", "reference": "https://pubmed.ncbi.nlm.nih.gov/32717045/", "identifier": {"value": "32717045", "system": "https://pubmed.ncbi.nlm.nih.gov", "assigner": {"display": "NLM"}}}}, {"type": "cites", "citation": "Laba T-L, Howard K, Rose J, Peiris D, Redfern J, Usherwood T, et al. Patient preferences for a polypill for the prevention of cardiovascular diseases. Ann Pharmacother. 2015;49:528\u201339. doi: 10.1177/1060028015570468.", "classifier": [{"coding": [{"code": "D016428", "system": "http://hl7.org/fhir/citation-artifact-classifier", "display": "Journal Article"}]}], "targetReference": {"type": "Citation", "reference": "https://pubmed.ncbi.nlm.nih.gov/25680761/", "identifier": {"value": "25680761", "system": "https://pubmed.ncbi.nlm.nih.gov", "assigner": {"display": "NLM"}}}}, {"type": "cites", "citation": "Wood F, Salam A, Singh K, Day S, Jan S, Prabhakaran D, et al. Process evaluation of the impact and acceptability of a polypill for prevention of cardiovascular disease. BMJ Open. 2015;5:e008018. doi: 10.1136/bmjopen-2015-008018.", "classifier": [{"coding": [{"code": "D016428", "system": "http://hl7.org/fhir/citation-artifact-classifier", "display": "Journal Article"}]}], "targetReference": {"type": "Citation", "reference": "https://pubmed.ncbi.nlm.nih.gov/26423850/", "identifier": {"value": "26423850", "system": "https://pubmed.ncbi.nlm.nih.gov", "assigner": {"display": "NLM"}}}}, {"type": "cites", "citation": "Chow CK, Atkins ER, Billot L, Chalmers J, Hillis GS, Hay P, et al. Ultra-low-dose quadruple combination blood pressure lowering therapy in patients with hypertension: The QUARTET randomized controlled trial protocol. Am Heart J. 2021;231:56\u201367. doi: 10.1016/j.ahj.2020.09.017.", "classifier": [{"coding": [{"code": "D016428", "system": "http://hl7.org/fhir/citation-artifact-classifier", "display": "Journal Article"}]}], "targetReference": {"type": "Citation", "reference": "https://pubmed.ncbi.nlm.nih.gov/33017580/", "identifier": {"value": "33017580", "system": "https://pubmed.ncbi.nlm.nih.gov", "assigner": {"display": "NLM"}}}}, {"type": "cites", "citation": "Chow CK, Thakkar J, Bennett A, Hillis G, Burke M, Usherwood T, et al. Quarter-dose quadruple combination therapy for initial treatment of hypertension: placebo-controlled, crossover, randomised trial and systematic review. Lancet. 2017;389:1035\u201342. doi: 10.1016/S0140-6736(17)30260-X.", "classifier": [{"coding": [{"code": "D016428", "system": "http://hl7.org/fhir/citation-artifact-classifier", "display": "Journal Article"}]}], "targetReference": {"type": "Citation", "reference": "https://pubmed.ncbi.nlm.nih.gov/28190578/", "identifier": {"value": "28190578", "system": "https://pubmed.ncbi.nlm.nih.gov", "assigner": {"display": "NLM"}}}}], "identifier": [{"value": "38584159", "system": "https://pubmed.ncbi.nlm.nih.gov"}, {"value": "PMC11150153", "system": "https://www.ncbi.nlm.nih.gov/pmc/"}, {"value": "10.1038/s41440-024-01658-y", "system": "https://doi.org"}, {"type": {"text": "pii", "coding": [{"system": "http://terminology.hl7.org/CodeSystem/v2-0203", "code": "ACSN", "display": "Accession ID"}]}, "value": "10.1038/s41440-024-01658-y"}], "webLocation": [{"url": "https://pubmed.ncbi.nlm.nih.gov/38584159/", "classifier": [{"coding": [{"code": "abstract", "system": "http://terminology.hl7.org/CodeSystem/artifact-url-classifier", "display": "Abstract"}]}]}, {"url": "https://doi.org/10.1038/s41440-024-01658-y", "classifier": [{"coding": [{"code": "doi-based", "system": "http://terminology.hl7.org/CodeSystem/artifact-url-classifier", "display": "DOI Based"}]}]}], "classification": [{"type": {"coding": [{"code": "publishing-model", "system": "http://terminology.hl7.org/CodeSystem/cited-artifact-classification-type", "display": "Publishing Model", "userSelected": false}]}, "classifier": [{"coding": [{"code": "Print-Electronic", "system": "http://terminology.hl7.org/CodeSystem/citation-artifact-classifier", "display": "Print Electronic", "userSelected": false}]}]}, {"type": {"coding": [{"code": "keyword", "system": "http://terminology.hl7.org/CodeSystem/cited-artifact-classification-type", "display": "Keyword", "userSelected": false}]}, "artifactAssessment": [{"type": "ArtifactAssessment", "display": "Keywords provided by NOTNLM", "reference": "#keywords0"}]}, {"type": {"coding": [{"code": "chemical", "system": "http://terminology.hl7.org/CodeSystem/cited-artifact-classification-type", "display": "Chemical", "userSelected": false}]}, "classifier": [{"coding": [{"code": "D001713", "system": "https://www.nlm.nih.gov/mesh", "display": "Biphenyl Compounds", "userSelected": false}]}, {"coding": [{"code": "D000959", "system": "https://www.nlm.nih.gov/mesh", "display": "Antihypertensive Agents", "userSelected": false}]}, {"coding": [{"code": "D001562", "system": "https://www.nlm.nih.gov/mesh", "display": "Benzimidazoles", "userSelected": false}]}, {"coding": [{"code": "1J444QC288", "system": "https://www.cas.org/support/documentation/chemical-substances", "userSelected": false}, {"code": "D017311", "system": "https://www.nlm.nih.gov/mesh", "display": "Amlodipine", "userSelected": false}]}, {"coding": [{"code": "D013777", "system": "https://www.nlm.nih.gov/mesh", "display": "Tetrazoles", "userSelected": false}]}, {"coding": [{"code": "S8Q36MD2XX", "system": "https://www.cas.org/support/documentation/chemical-substances", "userSelected": false}, {"code": "C081643", "system": "https://www.nlm.nih.gov/mesh", "display": "candesartan", "userSelected": false}]}, {"coding": [{"code": "Y41JS2NL6U", "system": "https://www.cas.org/support/documentation/chemical-substances", "userSelected": false}, {"code": "D017298", "system": "https://www.nlm.nih.gov/mesh", "display": "Bisoprolol", "userSelected": false}]}, {"coding": [{"code": "F089I0511L", "system": "https://www.cas.org/support/documentation/chemical-substances", "userSelected": false}, {"code": "D007190", "system": "https://www.nlm.nih.gov/mesh", "display": "Indapamide", "userSelected": false}]}]}, {"type": {"coding": [{"code": "mesh-heading", "system": "http://terminology.hl7.org/CodeSystem/cited-artifact-classification-type", "display": "MeSH heading"}]}, "artifactAssessment": [{"type": "ArtifactAssessment", "reference": "#meshHeading0"}]}, {"type": {"coding": [{"code": "publication-type", "system": "http://terminology.hl7.org/CodeSystem/cited-artifact-classification-type", "display": "Publication type"}]}, "classifier": [{"coding": [{"code": "D016428", "system": "https://www.nlm.nih.gov/mesh", "display": "Journal Article", "userSelected": false}]}, {"coding": [{"code": "D016449", "system": "https://www.nlm.nih.gov/mesh", "display": "Randomized Controlled Trial", "userSelected": false}]}, {"coding": [{"code": "D016448", "system": "https://www.nlm.nih.gov/mesh", "display": "Multicenter Study", "userSelected": false}]}]}, {"type": {"coding": [{"code": "knowledge-artifact-type", "system": "http://terminology.hl7.org/CodeSystem/cited-artifact-classification-type", "display": "Knowledge Artifact Type", "userSelected": false}]}, "classifier": [{"coding": [{"code": "D016428", "system": "http://terminology.hl7.org/CodeSystem/citation-artifact-classifier", "display": "Journal Article", "userSelected": false}]}], "artifactAssessment": [{"display": "Classifier added by Computable Publishing LLC"}]}, {"type": {"coding": [{"code": "citation-subset", "system": "http://terminology.hl7.org/CodeSystem/cited-artifact-classification-type", "display": "Citation subset", "userSelected": false}]}, "classifier": [{"coding": [{"code": "IM", "system": "https://www.nlm.nih.gov/bsd/licensee/elements_descriptions.html#citationsubset", "display": "IM", "userSelected": false}]}]}], "contributorship": {"entry": [{"affiliation": [{"display": "Cardiovascular Division and Global Health Center, Washington University in St. Louis, St. Louis, MO, USA. m.huffman@wustl.edu."}, {"display": "The George Institute for Global Health, University of New South Wales, Sydney, NSW, Australia. m.huffman@wustl.edu."}, {"display": "Department of Preventive Medicine, Feinberg School of Medicine, Northwestern University, Chicago, IL, USA. m.huffman@wustl.edu."}], "contributor": {"type": "Practitioner", "display": "Huffman MD", "reference": "#contributor0"}, "forenameInitials": "MD"}, {"affiliation": [{"display": "Department of Preventive Medicine, Feinberg School of Medicine, Northwestern University, Chicago, IL, USA."}, {"display": "Bluhm Cardiovascular Institute, Northwestern Medicine, Chicago, IL, USA."}], "contributor": {"type": "Practitioner", "display": "Baldridge AS", "reference": "#contributor1"}, "forenameInitials": "AS"}, {"affiliation": [{"display": "Access Community Health Network, Chicago, IL, USA."}], "contributor": {"type": "Practitioner", "display": "Lazar D", "reference": "#contributor2"}, "forenameInitials": "D"}, {"affiliation": [{"display": "Access Community Health Network, Chicago, IL, USA."}], "contributor": {"type": "Practitioner", "display": "Abbas H", "reference": "#contributor3"}, "forenameInitials": "H"}, {"affiliation": [{"display": "Access Community Health Network, Chicago, IL, USA."}], "contributor": {"type": "Practitioner", "display": "Mejia J", "reference": "#contributor4"}, "forenameInitials": "J"}, {"affiliation": [{"display": "Access Community Health Network, Chicago, IL, USA."}], "contributor": {"type": "Practitioner", "display": "Flowers FM", "reference": "#contributor5"}, "forenameInitials": "FM"}, {"affiliation": [{"display": "Access Community Health Network, Chicago, IL, USA."}], "contributor": {"type": "Practitioner", "display": "Quintana A", "reference": "#contributor6"}, "forenameInitials": "A"}, {"affiliation": [{"display": "Access Community Health Network, Chicago, IL, USA."}], "contributor": {"type": "Practitioner", "display": "Jackson A", "reference": "#contributor7"}, "forenameInitials": "A"}, {"affiliation": [{"display": "Department of Preventive Medicine, Feinberg School of Medicine, Northwestern University, Chicago, IL, USA."}, {"display": "Division of General Internal Medicine, Department of Medicine, Feinberg School of Medicine, Northwestern University, Chicago, IL, USA."}], "contributor": {"type": "Practitioner", "display": "Kandula NR", "reference": "#contributor8"}, "forenameInitials": "NR"}, {"affiliation": [{"display": "Department of Preventive Medicine, Feinberg School of Medicine, Northwestern University, Chicago, IL, USA."}, {"display": "Division of Cardiology, Department of Medicine, Feinberg School of Medicine, Northwestern University, Chicago, IL, USA."}], "contributor": {"type": "Practitioner", "display": "Lloyd-Jones DM", "reference": "#contributor9"}, "forenameInitials": "DM"}, {"affiliation": [{"display": "Division of General Internal Medicine, Department of Medicine, Feinberg School of Medicine, Northwestern University, Chicago, IL, USA."}, {"display": "Center for Primary Care Innovation, Institute for Public Health and Medicine, Feinberg School of Medicine, Northwestern University, Chicago, IL, USA."}], "contributor": {"type": "Practitioner", "display": "Persell SD", "reference": "#contributor10"}, "forenameInitials": "SD"}, {"affiliation": [{"display": "Department of Preventive Medicine, Feinberg School of Medicine, Northwestern University, Chicago, IL, USA."}, {"display": "Division of Cardiology, Department of Medicine, Feinberg School of Medicine, Northwestern University, Chicago, IL, USA."}], "contributor": {"type": "Practitioner", "display": "Khan SS", "reference": "#contributor11"}, "forenameInitials": "SS"}, {"affiliation": [{"display": "Department of Preventive Medicine, Feinberg School of Medicine, Northwestern University, Chicago, IL, USA."}, {"display": "Division of Nephrology and Hypertension, Department of Medicine, Feinberg School of Medicine, Northwestern University, Chicago, IL, USA."}], "contributor": {"type": "Practitioner", "display": "Paparello JJ", "reference": "#contributor12"}, "forenameInitials": "JJ"}, {"affiliation": [{"display": "Department of Preventive Medicine, Feinberg School of Medicine, Northwestern University, Chicago, IL, USA."}], "contributor": {"type": "Practitioner", "display": "Chopra A", "reference": "#contributor13"}, "forenameInitials": "A"}, {"affiliation": [{"display": "Department of Preventive Medicine, Feinberg School of Medicine, Northwestern University, Chicago, IL, USA."}], "contributor": {"type": "Practitioner", "display": "Tripathi P", "reference": "#contributor14"}, "forenameInitials": "P"}, {"affiliation": [{"display": "Department of Preventive Medicine, Feinberg School of Medicine, Northwestern University, Chicago, IL, USA."}], "contributor": {"type": "Practitioner", "display": "Vu MH", "reference": "#contributor15"}, "forenameInitials": "MH"}, {"affiliation": [{"display": "Westmead Applied Research Centre, University of Sydney, Westmead, NSW, Australia."}], "contributor": {"type": "Practitioner", "display": "Chow CK", "reference": "#contributor16"}, "forenameInitials": "CK"}, {"affiliation": [{"display": "Department of Preventive Medicine, Feinberg School of Medicine, Northwestern University, Chicago, IL, USA."}, {"display": "Northwestern University Data Analysis and Coordinating Center, Feinberg School of Medicine, Northwestern University, Chicago, IL, USA."}], "contributor": {"type": "Practitioner", "display": "Ciolino JD", "reference": "#contributor17"}, "forenameInitials": "JD"}], "complete": true}, "publicationForm": [{"issue": "6", "volume": "47", "pageString": "1668-1677", "articleDate": "2024-06", "citedMedium": {"coding": [{"code": "internet", "system": "http://terminology.hl7.org/CodeSystem/cited-medium", "display": "Internet"}]}, "publishedIn": {"type": {"coding": [{"code": "D020492", "system": "http://terminology.hl7.org/CodeSystem/published-in-type", "display": "Periodical"}]}, "title": "Hypertension research : official journal of the Japanese Society of Hypertension", "identifier": [{"type": {"text": "Electronic ISSN Type", "coding": [{"code": "Electronic", "system": "https://www.nlm.nih.gov/bsd/licensee/elements_descriptions.html#issn", "display": "Electronic"}]}, "value": "1348-4214", "system": "https://portal.issn.org"}, {"type": {"text": "ISOAbbreviation", "coding": [{"system": "http://terminology.hl7.org/CodeSystem/v2-0203", "code": "XX", "display": "Organization identifier"}]}, "value": "Hypertens Res", "system": "https://www.issn.org/services/online-services/access-to-the-ltwa/"}, {"type": {"text": "ISSN Linking", "coding": [{"system": "http://terminology.hl7.org/CodeSystem/v2-0203", "code": "XX", "display": "Organization identifier"}]}, "value": "0916-9636", "system": "https://www.issn.org/understanding-the-issn/assignment-rules/the-issn-l-for-publications-on-multiple-media/"}, {"type": {"text": "Medline Title Abbreviation", "coding": [{"system": "http://terminology.hl7.org/CodeSystem/v2-0203", "code": "XX", "display": "Organization identifier"}]}, "value": "Hypertens Res", "system": "https://www.nlm.nih.gov/tsd/cataloging/contructitleabbre.html"}, {"type": {"text": "NLM Unique ID", "coding": [{"system": "http://terminology.hl7.org/CodeSystem/v2-0203", "code": "XX", "display": "Organization identifier"}]}, "value": "9307690", "system": "https://locatorplus.gov/cgi-bin/Pwebrecon.cgi?DB=local"}], "publisherLocation": "England"}}, {"articleDate": "2024-04-08", "citedMedium": {"coding": [{"code": "internet-without-issue", "system": "http://terminology.hl7.org/CodeSystem/cited-medium", "display": "Internet without issue"}]}}], "relatedIdentifier": [{"value": "NCT03640312", "system": "https://clinicaltrials.gov", "assigner": {"display": "ClinicalTrials.gov"}}]}, "classification": [{"type": {"coding": [{"code": "citation-source", "system": "http://terminology.hl7.org/CodeSystem/citation-classification-type", "display": "Citation Source"}]}, "classifier": [{"text": "MEDLINE"}]}, {"type": {"coding": [{"code": "medline-owner", "system": "http://terminology.hl7.org/CodeSystem/citation-classification-type", "display": "MEDLINE Citation Owner"}]}, "classifier": [{"coding": [{"code": "NLM", "system": "https://www.nlm.nih.gov/bsd/licensee/elements_descriptions.html#owner_value", "display": "National Library of Medicine, Index Section", "userSelected": false}]}]}], "lastReviewDate": "2024-06-19", "description": "This Citation Resource is referenced in an example for the EBMonFHIR Implementation Guide."}