{"id": "179617", "url": "https://fevir.net/resources/Citation/179617", "meta": {"profile": ["http://hl7.org/fhir/uv/ebm/StructureDefinition/journal-article-citation"], "versionId": "20", "lastUpdated": "2025-10-13T12:34:35.118Z"}, "title": "25301760 Survival with Newly Diagnosed Metastatic Prostate Cancer in the \"Docetaxel Era\": Data from 917 Patients in the Control Arm of the STAMPEDE Trial (MRC PR08, CRUK/06/019).", "author": [{"name": "Computable Publishing\u00ae: MEDLINE-to-FEvIR Converter"}], "status": "active", "contact": [{"telecom": [{"value": "support@computablepublishing.com", "system": "email"}]}], "contained": [{"id": "keywords0", "content": [{"classifier": [{"text": "Control arm cohort"}]}, {"classifier": [{"text": "Hormone-na\u00efve"}]}, {"classifier": [{"text": "Metastatic"}]}, {"classifier": [{"text": "Natural history"}]}, {"classifier": [{"text": "Prognostic factors"}]}, {"classifier": [{"text": "Prospective data"}]}, {"classifier": [{"text": "Prostate cancer"}]}, {"classifier": [{"text": "Survival"}]}, {"classifier": [{"text": "Time to progression"}]}], "resourceType": "ArtifactAssessment", "artifactReference": {"type": "Citation", "reference": "#"}}, {"id": "contributor0", "name": [{"given": ["Nicholas David"], "family": "James"}], "resourceType": "Practitioner"}, {"id": "contributor1", "name": [{"given": ["Melissa R"], "family": "Spears"}], "resourceType": "Practitioner"}, {"id": "contributor2", "name": [{"given": ["Noel W"], "family": "Clarke"}], "resourceType": "Practitioner"}, {"id": "contributor3", "name": [{"given": ["David P"], "family": "Dearnaley"}], "resourceType": "Practitioner"}, {"id": "contributor4", "name": [{"given": ["Johann S"], "family": "De Bono"}], "resourceType": "Practitioner"}, {"id": "contributor5", "name": [{"given": ["Joanna"], "family": "Gale"}], "resourceType": "Practitioner"}, {"id": "contributor6", "name": [{"given": ["John"], "family": "Hetherington"}], "resourceType": "Practitioner"}, {"id": "contributor7", "name": [{"given": ["Peter J"], "family": "Hoskin"}], "resourceType": "Practitioner"}, {"id": "contributor8", "name": [{"given": ["Robert J"], "family": "Jones"}], "resourceType": "Practitioner"}, {"id": "contributor9", "name": [{"given": ["Robert"], "family": "Laing"}], "resourceType": "Practitioner"}, {"id": "contributor10", "name": [{"given": ["Jason F"], "family": "Lester"}], "resourceType": "Practitioner"}, {"id": "contributor11", "name": [{"given": ["Duncan"], "family": "McLaren"}], "resourceType": "Practitioner"}, {"id": "contributor12", "name": [{"given": ["Christopher C"], "family": "Parker"}], "resourceType": "Practitioner"}, {"id": "contributor13", "name": [{"given": ["Mahesh K B"], "family": "Parmar"}], "resourceType": "Practitioner"}, {"id": "contributor14", "name": [{"given": ["Alastair W S"], "family": "Ritchie"}], "resourceType": "Practitioner"}, {"id": "contributor15", "name": [{"given": ["J Martin"], "family": "Russell"}], "resourceType": "Practitioner"}, {"id": "contributor16", "name": [{"given": ["R\u00e4to T"], "family": "Strebel"}], "resourceType": "Practitioner"}, {"id": "contributor17", "name": [{"given": ["George N"], "family": "Thalmann"}], "resourceType": "Practitioner"}, {"id": "contributor18", "name": [{"given": ["Malcolm D"], "family": "Mason"}], "resourceType": "Practitioner"}, {"id": "contributor19", "name": [{"given": ["Matthew R"], "family": "Sydes"}], "resourceType": "Practitioner"}, {"id": "meshHeading0", "content": [{"type": {"text": "components (if present) include qualifier codings", "coding": [{"code": "mesh-heading", "system": "http://terminology.hl7.org/CodeSystem/cited-artifact-classification-type", "display": "MeSH heading"}]}, "component": [{"type": {"text": "qualifier"}, "classifier": [{"text": "is not a major topic"}]}], "classifier": [{"coding": [{"code": "D000328", "system": "https://www.nlm.nih.gov/mesh", "display": "Adult", "userSelected": false}]}], "freeToShare": true}, {"type": {"text": "components (if present) include qualifier codings", "coding": [{"code": "mesh-heading", "system": "http://terminology.hl7.org/CodeSystem/cited-artifact-classification-type", "display": "MeSH heading"}]}, "component": [{"type": {"text": "qualifier"}, "classifier": [{"text": "is not a major topic"}]}], "classifier": [{"coding": [{"code": "D000367", "system": "https://www.nlm.nih.gov/mesh", "display": "Age Factors", "userSelected": false}]}], "freeToShare": true}, {"type": {"text": "components (if present) include qualifier codings", "coding": [{"code": "mesh-heading", "system": "http://terminology.hl7.org/CodeSystem/cited-artifact-classification-type", "display": "MeSH heading"}]}, "component": [{"type": {"text": "qualifier"}, "classifier": [{"text": "is not a major topic"}]}], "classifier": [{"coding": [{"code": "D000368", "system": "https://www.nlm.nih.gov/mesh", "display": "Aged", "userSelected": false}]}], "freeToShare": true}, {"type": {"text": "components (if present) include qualifier codings", "coding": [{"code": "mesh-heading", "system": "http://terminology.hl7.org/CodeSystem/cited-artifact-classification-type", "display": "MeSH heading"}]}, "component": [{"type": {"text": "qualifier"}, "classifier": [{"text": "is not a major topic"}]}], "classifier": [{"coding": [{"code": "D000369", "system": "https://www.nlm.nih.gov/mesh", "display": "Aged, 80 and over", "userSelected": false}]}], "freeToShare": true}, {"type": {"text": "components (if present) include qualifier codings", "coding": [{"code": "mesh-heading", "system": "http://terminology.hl7.org/CodeSystem/cited-artifact-classification-type", "display": "MeSH heading"}]}, "component": [{"type": {"text": "qualifier"}, "classifier": [{"text": "is not a major topic"}]}, {"type": {"text": "qualifier"}, "component": [{"type": {"text": "is Major topic"}, "classifier": [{"coding": [{"code": "C49488", "system": "http://ncicb.nci.nih.gov/xml/owl/EVS/Thesaurus.owl", "display": "Yes"}]}]}], "classifier": [{"coding": [{"code": "Q000627", "system": "https://www.nlm.nih.gov/mesh", "display": "therapeutic use"}]}]}], "classifier": [{"coding": [{"code": "D000726", "system": "https://www.nlm.nih.gov/mesh", "display": "Androgen Antagonists", "userSelected": false}]}], "freeToShare": true}, {"type": {"text": "components (if present) include qualifier codings", "coding": [{"code": "mesh-heading", "system": "http://terminology.hl7.org/CodeSystem/cited-artifact-classification-type", "display": "MeSH heading"}]}, "component": [{"type": {"text": "qualifier"}, "classifier": [{"text": "is not a major topic"}]}], "classifier": [{"coding": [{"code": "D015331", "system": "https://www.nlm.nih.gov/mesh", "display": "Cohort Studies", "userSelected": false}]}], "freeToShare": true}, {"type": {"text": "components (if present) include qualifier codings", "coding": [{"code": "mesh-heading", "system": "http://terminology.hl7.org/CodeSystem/cited-artifact-classification-type", "display": "MeSH heading"}]}, "component": [{"type": {"text": "qualifier"}, "classifier": [{"text": "is not a major topic"}]}], "classifier": [{"coding": [{"code": "D018572", "system": "https://www.nlm.nih.gov/mesh", "display": "Disease-Free Survival", "userSelected": false}]}], "freeToShare": true}, {"type": {"text": "components (if present) include qualifier codings", "coding": [{"code": "mesh-heading", "system": "http://terminology.hl7.org/CodeSystem/cited-artifact-classification-type", "display": "MeSH heading"}]}, "component": [{"type": {"text": "qualifier"}, "classifier": [{"text": "is not a major topic"}]}], "classifier": [{"coding": [{"code": "D000077143", "system": "https://www.nlm.nih.gov/mesh", "display": "Docetaxel", "userSelected": false}]}], "freeToShare": true}, {"type": {"text": "components (if present) include qualifier codings", "coding": [{"code": "mesh-heading", "system": "http://terminology.hl7.org/CodeSystem/cited-artifact-classification-type", "display": "MeSH heading"}]}, "component": [{"type": {"text": "qualifier"}, "classifier": [{"text": "is not a major topic"}]}, {"type": {"text": "qualifier"}, "component": [{"type": {"text": "is Major topic"}, "classifier": [{"coding": [{"code": "C49487", "system": "http://ncicb.nci.nih.gov/xml/owl/EVS/Thesaurus.owl", "display": "No"}]}]}], "classifier": [{"coding": [{"code": "Q000401", "system": "https://www.nlm.nih.gov/mesh", "display": "mortality"}]}]}], "classifier": [{"coding": [{"code": "D055088", "system": "https://www.nlm.nih.gov/mesh", "display": "Early Detection of Cancer", "userSelected": false}]}], "freeToShare": true}, {"type": {"text": "components (if present) include qualifier codings", "coding": [{"code": "mesh-heading", "system": "http://terminology.hl7.org/CodeSystem/cited-artifact-classification-type", "display": "MeSH heading"}]}, "component": [{"type": {"text": "qualifier"}, "classifier": [{"text": "is not a major topic"}]}], "classifier": [{"coding": [{"code": "D005500", "system": "https://www.nlm.nih.gov/mesh", "display": "Follow-Up Studies", "userSelected": false}]}], "freeToShare": true}, {"type": {"text": "components (if present) include qualifier codings", "coding": [{"code": "mesh-heading", "system": "http://terminology.hl7.org/CodeSystem/cited-artifact-classification-type", "display": "MeSH heading"}]}, "component": [{"type": {"text": "qualifier"}, "classifier": [{"text": "is not a major topic"}]}], "classifier": [{"coding": [{"code": "D006801", "system": "https://www.nlm.nih.gov/mesh", "display": "Humans", "userSelected": false}]}], "freeToShare": true}, {"type": {"text": "components (if present) include qualifier codings", "coding": [{"code": "mesh-heading", "system": "http://terminology.hl7.org/CodeSystem/cited-artifact-classification-type", "display": "MeSH heading"}]}, "component": [{"type": {"text": "qualifier"}, "classifier": [{"text": "is not a major topic"}]}], "classifier": [{"coding": [{"code": "D053208", "system": "https://www.nlm.nih.gov/mesh", "display": "Kaplan-Meier Estimate", "userSelected": false}]}], "freeToShare": true}, {"type": {"text": "components (if present) include qualifier codings", "coding": [{"code": "mesh-heading", "system": "http://terminology.hl7.org/CodeSystem/cited-artifact-classification-type", "display": "MeSH heading"}]}, "component": [{"type": {"text": "qualifier"}, "classifier": [{"text": "is not a major topic"}]}], "classifier": [{"coding": [{"code": "D008297", "system": "https://www.nlm.nih.gov/mesh", "display": "Male", "userSelected": false}]}], "freeToShare": true}, {"type": {"text": "components (if present) include qualifier codings", "coding": [{"code": "mesh-heading", "system": "http://terminology.hl7.org/CodeSystem/cited-artifact-classification-type", "display": "MeSH heading"}]}, "component": [{"type": {"text": "qualifier"}, "classifier": [{"text": "is not a major topic"}]}], "classifier": [{"coding": [{"code": "D008875", "system": "https://www.nlm.nih.gov/mesh", "display": "Middle Aged", "userSelected": false}]}], "freeToShare": true}, {"type": {"text": "components (if present) include qualifier codings", "coding": [{"code": "mesh-heading", "system": "http://terminology.hl7.org/CodeSystem/cited-artifact-classification-type", "display": "MeSH heading"}]}, "component": [{"type": {"text": "qualifier"}, "classifier": [{"text": "is not a major topic"}]}], "classifier": [{"coding": [{"code": "D060787", "system": "https://www.nlm.nih.gov/mesh", "display": "Neoplasm Grading", "userSelected": false}]}], "freeToShare": true}, {"type": {"text": "components (if present) include qualifier codings", "coding": [{"code": "mesh-heading", "system": "http://terminology.hl7.org/CodeSystem/cited-artifact-classification-type", "display": "MeSH heading"}]}, "component": [{"type": {"text": "qualifier"}, "classifier": [{"text": "is not a major topic"}]}, {"type": {"text": "qualifier"}, "component": [{"type": {"text": "is Major topic"}, "classifier": [{"coding": [{"code": "C49487", "system": "http://ncicb.nci.nih.gov/xml/owl/EVS/Thesaurus.owl", "display": "No"}]}]}], "classifier": [{"coding": [{"code": "Q000175", "system": "https://www.nlm.nih.gov/mesh", "display": "diagnosis"}]}]}, {"type": {"text": "qualifier"}, "component": [{"type": {"text": "is Major topic"}, "classifier": [{"coding": [{"code": "C49487", "system": "http://ncicb.nci.nih.gov/xml/owl/EVS/Thesaurus.owl", "display": "No"}]}]}], "classifier": [{"coding": [{"code": "Q000473", "system": "https://www.nlm.nih.gov/mesh", "display": "pathology"}]}]}, {"type": {"text": "qualifier"}, "component": [{"type": {"text": "is Major topic"}, "classifier": [{"coding": [{"code": "C49488", "system": "http://ncicb.nci.nih.gov/xml/owl/EVS/Thesaurus.owl", "display": "Yes"}]}]}], "classifier": [{"coding": [{"code": "Q000628", "system": "https://www.nlm.nih.gov/mesh", "display": "therapy"}]}]}], "classifier": [{"coding": [{"code": "D009362", "system": "https://www.nlm.nih.gov/mesh", "display": "Neoplasm Metastasis", "userSelected": false}]}], "freeToShare": true}, {"type": {"text": "components (if present) include qualifier codings", "coding": [{"code": "mesh-heading", "system": "http://terminology.hl7.org/CodeSystem/cited-artifact-classification-type", "display": "MeSH heading"}]}, "component": [{"type": {"text": "qualifier"}, "classifier": [{"text": "is not a major topic"}]}], "classifier": [{"coding": [{"code": "D010809", "system": "https://www.nlm.nih.gov/mesh", "display": "Physical Fitness", "userSelected": false}]}], "freeToShare": true}, {"type": {"text": "components (if present) include qualifier codings", "coding": [{"code": "mesh-heading", "system": "http://terminology.hl7.org/CodeSystem/cited-artifact-classification-type", "display": "MeSH heading"}]}, "component": [{"type": {"text": "qualifier"}, "classifier": [{"text": "is not a major topic"}]}], "classifier": [{"coding": [{"code": "D011379", "system": "https://www.nlm.nih.gov/mesh", "display": "Prognosis", "userSelected": false}]}], "freeToShare": true}, {"type": {"text": "components (if present) include qualifier codings", "coding": [{"code": "mesh-heading", "system": "http://terminology.hl7.org/CodeSystem/cited-artifact-classification-type", "display": "MeSH heading"}]}, "component": [{"type": {"text": "qualifier"}, "classifier": [{"text": "is not a major topic"}]}], "classifier": [{"coding": [{"code": "D016016", "system": "https://www.nlm.nih.gov/mesh", "display": "Proportional Hazards Models", "userSelected": false}]}], "freeToShare": true}, {"type": {"text": "components (if present) include qualifier codings", "coding": [{"code": "mesh-heading", "system": "http://terminology.hl7.org/CodeSystem/cited-artifact-classification-type", "display": "MeSH heading"}]}, "component": [{"type": {"text": "qualifier"}, "classifier": [{"text": "is not a major topic"}]}, {"type": {"text": "qualifier"}, "component": [{"type": {"text": "is Major topic"}, "classifier": [{"coding": [{"code": "C49487", "system": "http://ncicb.nci.nih.gov/xml/owl/EVS/Thesaurus.owl", "display": "No"}]}]}], "classifier": [{"coding": [{"code": "Q000097", "system": "https://www.nlm.nih.gov/mesh", "display": "blood"}]}]}], "classifier": [{"coding": [{"code": "D017430", "system": "https://www.nlm.nih.gov/mesh", "display": "Prostate-Specific Antigen", "userSelected": false}]}], "freeToShare": true}, {"type": {"text": "components (if present) include qualifier codings", "coding": [{"code": "mesh-heading", "system": "http://terminology.hl7.org/CodeSystem/cited-artifact-classification-type", "display": "MeSH heading"}]}, "component": [{"type": {"text": "qualifier"}, "classifier": [{"text": "is not a major topic"}]}, {"type": {"text": "qualifier"}, "component": [{"type": {"text": "is Major topic"}, "classifier": [{"coding": [{"code": "C49487", "system": "http://ncicb.nci.nih.gov/xml/owl/EVS/Thesaurus.owl", "display": "No"}]}]}], "classifier": [{"coding": [{"code": "Q000175", "system": "https://www.nlm.nih.gov/mesh", "display": "diagnosis"}]}]}, {"type": {"text": "qualifier"}, "component": [{"type": {"text": "is Major topic"}, "classifier": [{"coding": [{"code": "C49488", "system": "http://ncicb.nci.nih.gov/xml/owl/EVS/Thesaurus.owl", "display": "Yes"}]}]}], "classifier": [{"coding": [{"code": "Q000188", "system": "https://www.nlm.nih.gov/mesh", "display": "drug therapy"}]}]}, {"type": {"text": "qualifier"}, "component": [{"type": {"text": "is Major topic"}, "classifier": [{"coding": [{"code": "C49487", "system": "http://ncicb.nci.nih.gov/xml/owl/EVS/Thesaurus.owl", "display": "No"}]}]}], "classifier": [{"coding": [{"code": "Q000401", "system": "https://www.nlm.nih.gov/mesh", "display": "mortality"}]}]}, {"type": {"text": "qualifier"}, "component": [{"type": {"text": "is Major topic"}, "classifier": [{"coding": [{"code": "C49487", "system": "http://ncicb.nci.nih.gov/xml/owl/EVS/Thesaurus.owl", "display": "No"}]}]}], "classifier": [{"coding": [{"code": "Q000473", "system": "https://www.nlm.nih.gov/mesh", "display": "pathology"}]}]}], "classifier": [{"coding": [{"code": "D011471", "system": "https://www.nlm.nih.gov/mesh", "display": "Prostatic Neoplasms", "userSelected": false}]}], "freeToShare": true}, {"type": {"text": "components (if present) include qualifier codings", "coding": [{"code": "mesh-heading", "system": "http://terminology.hl7.org/CodeSystem/cited-artifact-classification-type", "display": "MeSH heading"}]}, "component": [{"type": {"text": "qualifier"}, "classifier": [{"text": "is not a major topic"}]}], "classifier": [{"coding": [{"code": "D012307", "system": "https://www.nlm.nih.gov/mesh", "display": "Risk Factors", "userSelected": false}]}], "freeToShare": true}, {"type": {"text": "components (if present) include qualifier codings", "coding": [{"code": "mesh-heading", "system": "http://terminology.hl7.org/CodeSystem/cited-artifact-classification-type", "display": "MeSH heading"}]}, "component": [{"type": {"text": "qualifier"}, "classifier": [{"text": "is not a major topic"}]}, {"type": {"text": "qualifier"}, "component": [{"type": {"text": "is Major topic"}, "classifier": [{"coding": [{"code": "C49488", "system": "http://ncicb.nci.nih.gov/xml/owl/EVS/Thesaurus.owl", "display": "Yes"}]}]}], "classifier": [{"coding": [{"code": "Q000627", "system": "https://www.nlm.nih.gov/mesh", "display": "therapeutic use"}]}]}], "classifier": [{"coding": [{"code": "D043823", "system": "https://www.nlm.nih.gov/mesh", "display": "Taxoids", "userSelected": false}]}], "freeToShare": true}, {"type": {"text": "components (if present) include qualifier codings", "coding": [{"code": "mesh-heading", "system": "http://terminology.hl7.org/CodeSystem/cited-artifact-classification-type", "display": "MeSH heading"}]}, "component": [{"type": {"text": "qualifier"}, "classifier": [{"text": "is not a major topic"}]}], "classifier": [{"coding": [{"code": "D016896", "system": "https://www.nlm.nih.gov/mesh", "display": "Treatment Outcome", "userSelected": false}]}], "freeToShare": true}], "resourceType": "ArtifactAssessment", "artifactReference": {"type": "Citation", "reference": "#"}}], "copyright": "https://creativecommons.org/licenses/by-nc-sa/4.0/", "extension": [{"url": "http://hl7.org/fhir/uv/ebm/StructureDefinition/artifact-publication-status", "valueCodeableConcept": {"coding": [{"code": "active", "system": "http://terminology.hl7.org/CodeSystem/cited-artifact-status-type", "display": "Active"}]}}], "publisher": "Computable Publishing LLC", "identifier": [{"type": {"text": "FEvIR Object Identifier", "coding": [{"system": "http://terminology.hl7.org/CodeSystem/v2-0203", "code": "ACSN", "display": "Accession ID"}]}, "value": "179617", "system": "https://fevir.net/FOI", "assigner": {"display": "Computable Publishing LLC"}}, {"value": "25301760", "system": "https://pubmed.ncbi.nlm.nih.gov"}], "statusDate": [{"period": {"end": "2014-07-23"}, "activity": {"coding": [{"code": "pubmed-pubstatus-received", "system": "http://hl7.org/fhir/citation-status-type", "display": "PubMed Pubstatus of Received"}]}}, {"period": {"end": "2014-09-19"}, "activity": {"coding": [{"code": "pubmed-pubstatus-accepted", "system": "http://hl7.org/fhir/citation-status-type", "display": "PubMed Pubstatus of Accepted"}]}}, {"period": {"end": "2014-10-11T06:00:00.000Z"}, "activity": {"coding": [{"code": "pubmed-pubstatus-entrez", "system": "http://hl7.org/fhir/citation-status-type", "display": "PubMed Pubstatus of Entrez"}]}}, {"period": {"end": "2014-10-11T06:00:00.000Z"}, "activity": {"coding": [{"code": "pubmed-pubstatus-pubmed", "system": "http://hl7.org/fhir/citation-status-type", "display": "PubMed Pubstatus of Pubmed"}]}}, {"period": {"end": "2016-04-08T06:00:00.000Z"}, "activity": {"coding": [{"code": "pubmed-pubstatus-medline", "system": "http://hl7.org/fhir/citation-status-type", "display": "PubMed Pubstatus of Medline"}]}}], "useContext": [{"code": {"code": "fevir-platform-use", "system": "http://terminology.hl7.org/CodeSystem/citation-classification-type", "display": "FEvIR Platform Use"}, "valueCodeableConcept": {"coding": [{"code": "medline-base", "system": "http://terminology.hl7.org/CodeSystem/citation-artifact-classifier", "display": "Medline Base", "userSelected": false}]}}], "approvalDate": "2016-04-07", "currentState": [{"coding": [{"code": "medline-medline", "system": "http://hl7.org/fhir/citation-status-type", "display": "Medline Citation Status of Medline"}]}, {"coding": [{"code": "pubmed-publication-status-ppublish", "system": "http://hl7.org/fhir/citation-status-type", "display": "PubMed PublicationStatus of ppublish"}]}], "resourceType": "Citation", "citedArtifact": {"title": [{"text": "Survival with Newly Diagnosed Metastatic Prostate Cancer in the \"Docetaxel Era\": Data from 917 Patients in the Control Arm of the STAMPEDE Trial (MRC PR08, CRUK/06/019).", "type": [{"coding": [{"code": "primary", "system": "http://terminology.hl7.org/CodeSystem/title-type", "display": "Primary title"}]}], "language": {"coding": [{"system": "urn:ietf:bcp:47", "code": "en", "display": "English"}]}}], "abstract": [{"text": "**BACKGROUND:** Prostate cancer (PCa) is the second most common disease among men worldwide. It is important to know survival outcomes and prognostic factors for this disease. Recruitment for the largest therapeutic randomised controlled trial in PCa--the Systemic Therapy in Advancing or Metastatic Prostate Cancer: Evaluation of Drug Efficacy: A Multi-Stage Multi-Arm Randomised Controlled Trial (STAMPEDE)--includes men with newly diagnosed metastatic PCa who are commencing long-term androgen deprivation therapy (ADT); the control arm provides valuable data for a prospective cohort.\n**OBJECTIVE:** Describe survival outcomes, along with current treatment standards and factors associated with prognosis, to inform future trial design in this patient group.\n**DESIGN, SETTING, AND PARTICIPANTS:** STAMPEDE trial control arm comprising men newly diagnosed with M1 disease who were recruited between October 2005 and January 2014.\n**OUTCOME MEASUREMENTS AND STATISTICAL ANALYSIS:** Overall survival (OS) and failure-free survival (FFS) were reported by primary disease characteristics using Kaplan-Meier methods. Hazard ratios and 95% confidence intervals (CIs) were derived from multivariate Cox models.\n**RESULTS AND LIMITATIONS:** A cohort of 917 men with newly diagnosed M1 disease was recruited to the control arm in the specified interval. Median follow-up was 20 mo. Median age at randomisation was 66 yr (interquartile range [IQR]: 61-71), and median prostate-specific antigen level was 112 ng/ml (IQR: 34-373). Most men (n=574; 62%) had bone-only metastases, whereas 237 (26%) had both bone and soft tissue metastases; soft tissue metastasis was found mainly in distant lymph nodes. There were 238 deaths, 202 (85%) from PCa. Median FFS was 11 mo; 2-yr FFS was 29% (95% CI, 25-33). Median OS was 42 mo; 2-yr OS was 72% (95% CI, 68-76). Survival time was influenced by performance status, age, Gleason score, and metastases distribution. Median survival after FFS event was 22 mo. Trial eligibility criteria meant men were younger and fitter than general PCa population.\n**CONCLUSIONS:** Survival remains disappointing in men presenting with M1 disease who are started on only long-term ADT, despite active treatments being available at first failure of ADT. Importantly, men with M1 disease now spend the majority of their remaining life in a state of castration-resistant relapse.\n**PATIENT SUMMARY:** Results from this control arm cohort found survival is relatively short and highly influenced by patient age, fitness, and where prostate cancer has spread in the body.", "type": {"coding": [{"code": "primary-human-use", "system": "http://terminology.hl7.org/CodeSystem/cited-artifact-abstract-type", "display": "Primary human use"}]}, "copyright": "Copyright \u00a9 2014 The Authors. Published by Elsevier B.V. All rights reserved."}], "relatesTo": [{"type": "comment-in", "citation": "Eur Urol. 2015 Jun;67(6):1039-1041. doi: 10.1016/j.eururo.2014.12.004.", "classifier": [{"coding": [{"code": "D016420", "system": "https://www.nlm.nih.gov/mesh", "display": "Comment", "userSelected": false}]}], "targetReference": {"reference": "https://pubmed.ncbi.nlm.nih.gov/25544634/", "identifier": {"value": "25544634", "system": "https://pubmed.ncbi.nlm.nih.gov", "assigner": {"display": "NLM"}}}}, {"type": "comment-in", "citation": "J Urol. 2016 Feb;195(2):350. doi: 10.1016/j.juro.2015.10.165.", "classifier": [{"coding": [{"code": "D016420", "system": "https://www.nlm.nih.gov/mesh", "display": "Comment", "userSelected": false}]}], "targetReference": {"reference": "https://pubmed.ncbi.nlm.nih.gov/26852973/", "identifier": {"value": "26852973", "system": "https://pubmed.ncbi.nlm.nih.gov", "assigner": {"display": "NLM"}}}}], "identifier": [{"value": "25301760", "system": "https://pubmed.ncbi.nlm.nih.gov"}, {"value": "10.1016/j.eururo.2014.09.032", "system": "https://doi.org"}, {"type": {"text": "pii", "coding": [{"system": "http://terminology.hl7.org/CodeSystem/v2-0203", "code": "ACSN", "display": "Accession ID"}]}, "value": "S0302-2838(14)00969-5"}], "webLocation": [{"url": "https://pubmed.ncbi.nlm.nih.gov/25301760/", "classifier": [{"coding": [{"code": "abstract", "system": "http://terminology.hl7.org/CodeSystem/artifact-url-classifier", "display": "Abstract"}]}]}, {"url": "https://doi.org/10.1016/j.eururo.2014.09.032", "classifier": [{"coding": [{"code": "doi-based", "system": "http://terminology.hl7.org/CodeSystem/artifact-url-classifier", "display": "DOI Based"}]}]}], "classification": [{"type": {"coding": [{"code": "publishing-model", "system": "http://terminology.hl7.org/CodeSystem/cited-artifact-classification-type", "display": "Publishing Model", "userSelected": false}]}, "classifier": [{"coding": [{"code": "Print-Electronic", "system": "http://terminology.hl7.org/CodeSystem/citation-artifact-classifier", "display": "Print Electronic", "userSelected": false}]}]}, {"type": {"coding": [{"code": "keyword", "system": "http://terminology.hl7.org/CodeSystem/cited-artifact-classification-type", "display": "Keyword", "userSelected": false}]}, "artifactAssessment": [{"type": "ArtifactAssessment", "display": "Keywords provided by NOTNLM", "reference": "#keywords0"}]}, {"type": {"coding": [{"code": "chemical", "system": "http://terminology.hl7.org/CodeSystem/cited-artifact-classification-type", "display": "Chemical", "userSelected": false}]}, "classifier": [{"coding": [{"code": "D000726", "system": "https://www.nlm.nih.gov/mesh", "display": "Androgen Antagonists", "userSelected": false}]}, {"coding": [{"code": "D043823", "system": "https://www.nlm.nih.gov/mesh", "display": "Taxoids", "userSelected": false}]}, {"coding": [{"code": "15H5577CQD", "system": "https://www.cas.org/support/documentation/chemical-substances", "userSelected": false}, {"code": "D000077143", "system": "https://www.nlm.nih.gov/mesh", "display": "Docetaxel", "userSelected": false}]}, {"coding": [{"code": "EC 3.4.21.77", "system": "https://www.cas.org/support/documentation/chemical-substances", "userSelected": false}, {"code": "D017430", "system": "https://www.nlm.nih.gov/mesh", "display": "Prostate-Specific Antigen", "userSelected": false}]}]}, {"type": {"coding": [{"code": "mesh-heading", "system": "http://terminology.hl7.org/CodeSystem/cited-artifact-classification-type", "display": "MeSH heading"}]}, "artifactAssessment": [{"type": "ArtifactAssessment", "reference": "#meshHeading0"}]}, {"type": {"coding": [{"code": "publication-type", "system": "http://terminology.hl7.org/CodeSystem/cited-artifact-classification-type", "display": "Publication type"}]}, "classifier": [{"coding": [{"code": "D016428", "system": "https://www.nlm.nih.gov/mesh", "display": "Journal Article", "userSelected": false}]}, {"coding": [{"code": "D016449", "system": "https://www.nlm.nih.gov/mesh", "display": "Randomized Controlled Trial", "userSelected": false}]}, {"coding": [{"code": "D013485", "system": "https://www.nlm.nih.gov/mesh", "display": "Research Support, Non-U.S. Gov't", "userSelected": false}]}]}, {"type": {"coding": [{"code": "knowledge-artifact-type", "system": "http://terminology.hl7.org/CodeSystem/cited-artifact-classification-type", "display": "Knowledge Artifact Type", "userSelected": false}]}, "classifier": [{"coding": [{"code": "D016428", "system": "http://terminology.hl7.org/CodeSystem/citation-artifact-classifier", "display": "Journal Article", "userSelected": false}]}], "artifactAssessment": [{"display": "Classifier added by Computable Publishing LLC"}]}, {"type": {"coding": [{"code": "citation-subset", "system": "http://terminology.hl7.org/CodeSystem/cited-artifact-classification-type", "display": "Citation subset", "userSelected": false}]}, "classifier": [{"coding": [{"code": "IM", "system": "https://www.nlm.nih.gov/bsd/licensee/elements_descriptions.html#citationsubset", "display": "IM", "userSelected": false}]}]}], "contributorship": {"entry": [{"affiliation": [{"display": "University of Warwick, Coventry, UK. Electronic address: N.D.James@warwick.ac.uk."}], "contributor": {"type": "Practitioner", "display": "James ND", "reference": "#contributor0"}, "forenameInitials": "ND"}, {"affiliation": [{"display": "Medical Research Council Clinical Trials Unit at University College London, London, UK."}], "contributor": {"type": "Practitioner", "display": "Spears MR", "reference": "#contributor1"}, "forenameInitials": "MR"}, {"affiliation": [{"display": "Department of Urology, The Christie NHS Foundation Trust, Manchester, UK."}], "contributor": {"type": "Practitioner", "display": "Clarke NW", "reference": "#contributor2"}, "forenameInitials": "NW"}, {"affiliation": [{"display": "Institute of Cancer Research, London, UK; The Royal Marsden NHS Foundation Trust, London and Sutton, UK."}], "contributor": {"type": "Practitioner", "display": "Dearnaley DP", "reference": "#contributor3"}, "forenameInitials": "DP"}, {"affiliation": [{"display": "Institute of Cancer Research, London, UK; The Royal Marsden NHS Foundation Trust, London and Sutton, UK."}], "contributor": {"type": "Practitioner", "display": "De Bono JS", "reference": "#contributor4"}, "forenameInitials": "JS"}, {"affiliation": [{"display": "Queen Alexandra Hospital, Portsmouth, UK."}], "contributor": {"type": "Practitioner", "display": "Gale J", "reference": "#contributor5"}, "forenameInitials": "J"}, {"affiliation": [{"display": "Hull & East Yorkshire Hospitals NHS Trust, Hull, UK."}], "contributor": {"type": "Practitioner", "display": "Hetherington J", "reference": "#contributor6"}, "forenameInitials": "J"}, {"affiliation": [{"display": "Mount Vernon Hospital, Northwood, Middlesex, UK."}], "contributor": {"type": "Practitioner", "display": "Hoskin PJ", "reference": "#contributor7"}, "forenameInitials": "PJ"}, {"affiliation": [{"display": "University of Glasgow, Beatson West of Scotland Cancer Centre, Glasgow, UK."}], "contributor": {"type": "Practitioner", "display": "Jones RJ", "reference": "#contributor8"}, "forenameInitials": "RJ"}, {"affiliation": [{"display": "Royal Surrey County Hospital, Guildford, UK."}], "contributor": {"type": "Practitioner", "display": "Laing R", "reference": "#contributor9"}, "forenameInitials": "R"}, {"affiliation": [{"display": "Velindre Hospital, Cardiff, UK."}], "contributor": {"type": "Practitioner", "display": "Lester JF", "reference": "#contributor10"}, "forenameInitials": "JF"}, {"affiliation": [{"display": "Western General Hospital, Edinburgh, UK."}], "contributor": {"type": "Practitioner", "display": "McLaren D", "reference": "#contributor11"}, "forenameInitials": "D"}, {"affiliation": [{"display": "Institute of Cancer Research, London, UK; The Royal Marsden NHS Foundation Trust, London and Sutton, UK."}], "contributor": {"type": "Practitioner", "display": "Parker CC", "reference": "#contributor12"}, "forenameInitials": "CC"}, {"affiliation": [{"display": "Medical Research Council Clinical Trials Unit at University College London, London, UK."}], "contributor": {"type": "Practitioner", "display": "Parmar MKB", "reference": "#contributor13"}, "forenameInitials": "MKB"}, {"affiliation": [{"display": "Medical Research Council Clinical Trials Unit at University College London, London, UK."}], "contributor": {"type": "Practitioner", "display": "Ritchie AWS", "reference": "#contributor14"}, "forenameInitials": "AWS"}, {"affiliation": [{"display": "Institute of Cancer Sciences, University of Glasgow, Glasgow, UK."}], "contributor": {"type": "Practitioner", "display": "Russell JM", "reference": "#contributor15"}, "forenameInitials": "JM"}, {"affiliation": [{"display": "Kantonsspital Gra\u00fcbunden, Chur, Switzerland."}], "contributor": {"type": "Practitioner", "display": "Strebel RT", "reference": "#contributor16"}, "forenameInitials": "RT"}, {"affiliation": [{"display": "Department of Urology, University Hospital, Bern, Switzerland."}], "contributor": {"type": "Practitioner", "display": "Thalmann GN", "reference": "#contributor17"}, "forenameInitials": "GN"}, {"affiliation": [{"display": "Velindre Hospital, Cardiff, UK."}], "contributor": {"type": "Practitioner", "display": "Mason MD", "reference": "#contributor18"}, "forenameInitials": "MD"}, {"affiliation": [{"display": "Medical Research Council Clinical Trials Unit at University College London, London, UK."}], "contributor": {"type": "Practitioner", "display": "Sydes MR", "reference": "#contributor19"}, "forenameInitials": "MR"}], "complete": true}, "publicationForm": [{"issue": "6", "volume": "67", "pageString": "1028-1038", "articleDate": "2015-06", "citedMedium": {"coding": [{"code": "internet", "system": "http://terminology.hl7.org/CodeSystem/cited-medium", "display": "Internet"}]}, "publishedIn": {"type": {"coding": [{"code": "D020492", "system": "http://terminology.hl7.org/CodeSystem/published-in-type", "display": "Periodical"}]}, "title": "European urology", "identifier": [{"type": {"text": "Electronic ISSN Type", "coding": [{"code": "Electronic", "system": "https://www.nlm.nih.gov/bsd/licensee/elements_descriptions.html#issn", "display": "Electronic"}]}, "value": "1873-7560", "system": "https://portal.issn.org"}, {"type": {"text": "ISOAbbreviation", "coding": [{"system": "http://terminology.hl7.org/CodeSystem/v2-0203", "code": "XX", "display": "Organization identifier"}]}, "value": "Eur Urol", "system": "https://www.issn.org/services/online-services/access-to-the-ltwa/"}, {"type": {"text": "ISSN Linking", "coding": [{"system": "http://terminology.hl7.org/CodeSystem/v2-0203", "code": "XX", "display": "Organization identifier"}]}, "value": "0302-2838", "system": "https://www.issn.org/understanding-the-issn/assignment-rules/the-issn-l-for-publications-on-multiple-media/"}, {"type": {"text": "Medline Title Abbreviation", "coding": [{"system": "http://terminology.hl7.org/CodeSystem/v2-0203", "code": "XX", "display": "Organization identifier"}]}, "value": "Eur Urol", "system": "https://www.nlm.nih.gov/tsd/cataloging/contructitleabbre.html"}, {"type": {"text": "NLM Unique ID", "coding": [{"system": "http://terminology.hl7.org/CodeSystem/v2-0203", "code": "XX", "display": "Organization identifier"}]}, "value": "7512719", "system": "https://locatorplus.gov/cgi-bin/Pwebrecon.cgi?DB=local"}], "publisherLocation": "Switzerland"}}, {"articleDate": "2014-10-06", "citedMedium": {"coding": [{"code": "internet-without-issue", "system": "http://terminology.hl7.org/CodeSystem/cited-medium", "display": "Internet without issue"}]}}]}, "classification": [{"type": {"coding": [{"code": "citation-source", "system": "http://terminology.hl7.org/CodeSystem/citation-classification-type", "display": "Citation Source"}]}, "classifier": [{"text": "MEDLINE"}]}, {"type": {"coding": [{"code": "medline-owner", "system": "http://terminology.hl7.org/CodeSystem/citation-classification-type", "display": "MEDLINE Citation Owner"}]}, "classifier": [{"coding": [{"code": "NLM", "system": "https://www.nlm.nih.gov/bsd/licensee/elements_descriptions.html#owner_value", "display": "National Library of Medicine, Index Section", "userSelected": false}]}]}], "lastReviewDate": "2022-12-08", "description": "This Citation Resource is referenced in an example for the EBMonFHIR Implementation Guide."}