{"id": "179615", "url": "https://fevir.net/resources/Citation/179615", "meta": {"profile": ["http://hl7.org/fhir/uv/ebm/StructureDefinition/journal-article-citation"], "versionId": "18", "lastUpdated": "2025-10-13T12:34:35.118Z"}, "title": "23306100 Androgen-deprivation therapy alone or with docetaxel in non-castrate metastatic prostate cancer (GETUG-AFU 15): a randomised, open-label, phase 3 trial.", "author": [{"name": "Computable Publishing\u00ae: MEDLINE-to-FEvIR Converter"}], "status": "active", "contact": [{"telecom": [{"value": "support@computablepublishing.com", "system": "email"}]}], "contained": [{"id": "contributor0", "name": [{"given": ["Gwenaelle"], "family": "Gravis"}], "resourceType": "Practitioner"}, {"id": "contributor1", "name": [{"given": ["Karim"], "family": "Fizazi"}], "resourceType": "Practitioner"}, {"id": "contributor2", "name": [{"given": ["Florence"], "family": "Joly"}], "resourceType": "Practitioner"}, {"id": "contributor3", "name": [{"given": ["St\u00e9phane"], "family": "Oudard"}], "resourceType": "Practitioner"}, {"id": "contributor4", "name": [{"given": ["Franck"], "family": "Priou"}], "resourceType": "Practitioner"}, {"id": "contributor5", "name": [{"given": ["Benjamin"], "family": "Esterni"}], "resourceType": "Practitioner"}, {"id": "contributor6", "name": [{"given": ["Igor"], "family": "Latorzeff"}], "resourceType": "Practitioner"}, {"id": "contributor7", "name": [{"given": ["Remy"], "family": "Delva"}], "resourceType": "Practitioner"}, {"id": "contributor8", "name": [{"given": ["Ivan"], "family": "Krakowski"}], "resourceType": "Practitioner"}, {"id": "contributor9", "name": [{"given": ["Brigitte"], "family": "Laguerre"}], "resourceType": "Practitioner"}, {"id": "contributor10", "name": [{"given": ["Fr\u00e9deric"], "family": "Rolland"}], "resourceType": "Practitioner"}, {"id": "contributor11", "name": [{"given": ["Christine"], "family": "Th\u00e9odore"}], "resourceType": "Practitioner"}, {"id": "contributor12", "name": [{"given": ["Gael"], "family": "Deplanque"}], "resourceType": "Practitioner"}, {"id": "contributor13", "name": [{"given": ["Jean Marc"], "family": "Ferrero"}], "resourceType": "Practitioner"}, {"id": "contributor14", "name": [{"given": ["Damien"], "family": "Pouessel"}], "resourceType": "Practitioner"}, {"id": "contributor15", "name": [{"given": ["Lo\u00efc"], "family": "Mourey"}], "resourceType": "Practitioner"}, {"id": "contributor16", "name": [{"given": ["Philippe"], "family": "Beuzeboc"}], "resourceType": "Practitioner"}, {"id": "contributor17", "name": [{"given": ["Sylvie"], "family": "Zanetta"}], "resourceType": "Practitioner"}, {"id": "contributor18", "name": [{"given": ["Muriel"], "family": "Habibian"}], "resourceType": "Practitioner"}, {"id": "contributor19", "name": [{"given": ["Jean Fran\u00e7ois"], "family": "Berdah"}], "resourceType": "Practitioner"}, {"id": "contributor20", "name": [{"given": ["Jerome"], "family": "Dauba"}], "resourceType": "Practitioner"}, {"id": "contributor21", "name": [{"given": ["Marjorie"], "family": "Baciuchka"}], "resourceType": "Practitioner"}, {"id": "contributor22", "name": [{"given": ["Christian"], "family": "Platini"}], "resourceType": "Practitioner"}, {"id": "contributor23", "name": [{"given": ["Claude"], "family": "Linassier"}], "resourceType": "Practitioner"}, {"id": "contributor24", "name": [{"given": ["Jean Luc"], "family": "Labourey"}], "resourceType": "Practitioner"}, {"id": "contributor25", "name": [{"given": ["Jean Pascal"], "family": "Machiels"}], "resourceType": "Practitioner"}, {"id": "contributor26", "name": [{"given": ["Claude"], "family": "El Kouri"}], "resourceType": "Practitioner"}, {"id": "contributor27", "name": [{"given": ["Alain"], "family": "Ravaud"}], "resourceType": "Practitioner"}, {"id": "contributor28", "name": [{"given": ["Etienne"], "family": "Suc"}], "resourceType": "Practitioner"}, {"id": "contributor29", "name": [{"given": ["Jean Christophe"], "family": "Eymard"}], "resourceType": "Practitioner"}, {"id": "contributor30", "name": [{"given": ["Ali"], "family": "Hasbini"}], "resourceType": "Practitioner"}, {"id": "contributor31", "name": [{"given": ["Guilhem"], "family": "Bousquet"}], "resourceType": "Practitioner"}, {"id": "contributor32", "name": [{"given": ["Michel"], "family": "Soulie"}], "resourceType": "Practitioner"}, {"id": "meshHeading0", "content": [{"type": {"text": "components (if present) include qualifier codings", "coding": [{"code": "mesh-heading", "system": "http://terminology.hl7.org/CodeSystem/cited-artifact-classification-type", "display": "MeSH heading"}]}, "component": [{"type": {"text": "qualifier"}, "classifier": [{"text": "is not a major topic"}]}], "classifier": [{"coding": [{"code": "D000368", "system": "https://www.nlm.nih.gov/mesh", "display": "Aged", "userSelected": false}]}], "freeToShare": true}, {"type": {"text": "components (if present) include qualifier codings", "coding": [{"code": "mesh-heading", "system": "http://terminology.hl7.org/CodeSystem/cited-artifact-classification-type", "display": "MeSH heading"}]}, "component": [{"type": {"text": "qualifier"}, "classifier": [{"text": "is not a major topic"}]}, {"type": {"text": "qualifier"}, "component": [{"type": {"text": "is Major topic"}, "classifier": [{"coding": [{"code": "C49487", "system": "http://ncicb.nci.nih.gov/xml/owl/EVS/Thesaurus.owl", "display": "No"}]}]}], "classifier": [{"coding": [{"code": "Q000008", "system": "https://www.nlm.nih.gov/mesh", "display": "administration & dosage"}]}]}, {"type": {"text": "qualifier"}, "component": [{"type": {"text": "is Major topic"}, "classifier": [{"coding": [{"code": "C49488", "system": "http://ncicb.nci.nih.gov/xml/owl/EVS/Thesaurus.owl", "display": "Yes"}]}]}], "classifier": [{"coding": [{"code": "Q000627", "system": "https://www.nlm.nih.gov/mesh", "display": "therapeutic use"}]}]}], "classifier": [{"coding": [{"code": "D000726", "system": "https://www.nlm.nih.gov/mesh", "display": "Androgen Antagonists", "userSelected": false}]}], "freeToShare": true}, {"type": {"text": "components (if present) include qualifier codings", "coding": [{"code": "mesh-heading", "system": "http://terminology.hl7.org/CodeSystem/cited-artifact-classification-type", "display": "MeSH heading"}]}, "component": [{"type": {"text": "qualifier"}, "classifier": [{"text": "is not a major topic"}]}, {"type": {"text": "qualifier"}, "component": [{"type": {"text": "is Major topic"}, "classifier": [{"coding": [{"code": "C49488", "system": "http://ncicb.nci.nih.gov/xml/owl/EVS/Thesaurus.owl", "display": "Yes"}]}]}], "classifier": [{"coding": [{"code": "Q000627", "system": "https://www.nlm.nih.gov/mesh", "display": "therapeutic use"}]}]}], "classifier": [{"coding": [{"code": "D000971", "system": "https://www.nlm.nih.gov/mesh", "display": "Antineoplastic Combined Chemotherapy Protocols", "userSelected": false}]}], "freeToShare": true}, {"type": {"text": "components (if present) include qualifier codings", "coding": [{"code": "mesh-heading", "system": "http://terminology.hl7.org/CodeSystem/cited-artifact-classification-type", "display": "MeSH heading"}]}, "component": [{"type": {"text": "qualifier"}, "classifier": [{"text": "is not a major topic"}]}], "classifier": [{"coding": [{"code": "D018572", "system": "https://www.nlm.nih.gov/mesh", "display": "Disease-Free Survival", "userSelected": false}]}], "freeToShare": true}, {"type": {"text": "components (if present) include qualifier codings", "coding": [{"code": "mesh-heading", "system": "http://terminology.hl7.org/CodeSystem/cited-artifact-classification-type", "display": "MeSH heading"}]}, "component": [{"type": {"text": "qualifier"}, "classifier": [{"text": "is not a major topic"}]}], "classifier": [{"coding": [{"code": "D000077143", "system": "https://www.nlm.nih.gov/mesh", "display": "Docetaxel", "userSelected": false}]}], "freeToShare": true}, {"type": {"text": "components (if present) include qualifier codings", "coding": [{"code": "mesh-heading", "system": "http://terminology.hl7.org/CodeSystem/cited-artifact-classification-type", "display": "MeSH heading"}]}, "component": [{"type": {"text": "qualifier"}, "classifier": [{"text": "is not a major topic"}]}], "classifier": [{"coding": [{"code": "D006801", "system": "https://www.nlm.nih.gov/mesh", "display": "Humans", "userSelected": false}]}], "freeToShare": true}, {"type": {"text": "components (if present) include qualifier codings", "coding": [{"code": "mesh-heading", "system": "http://terminology.hl7.org/CodeSystem/cited-artifact-classification-type", "display": "MeSH heading"}]}, "component": [{"type": {"text": "qualifier"}, "classifier": [{"text": "is not a major topic"}]}], "classifier": [{"coding": [{"code": "D008297", "system": "https://www.nlm.nih.gov/mesh", "display": "Male", "userSelected": false}]}], "freeToShare": true}, {"type": {"text": "components (if present) include qualifier codings", "coding": [{"code": "mesh-heading", "system": "http://terminology.hl7.org/CodeSystem/cited-artifact-classification-type", "display": "MeSH heading"}]}, "component": [{"type": {"text": "qualifier"}, "classifier": [{"text": "is not a major topic"}]}], "classifier": [{"coding": [{"code": "D008875", "system": "https://www.nlm.nih.gov/mesh", "display": "Middle Aged", "userSelected": false}]}], "freeToShare": true}, {"type": {"text": "components (if present) include qualifier codings", "coding": [{"code": "mesh-heading", "system": "http://terminology.hl7.org/CodeSystem/cited-artifact-classification-type", "display": "MeSH heading"}]}, "component": [{"type": {"text": "qualifier"}, "classifier": [{"text": "is not a major topic"}]}], "classifier": [{"coding": [{"code": "D009919", "system": "https://www.nlm.nih.gov/mesh", "display": "Orchiectomy", "userSelected": false}]}], "freeToShare": true}, {"type": {"text": "components (if present) include qualifier codings", "coding": [{"code": "mesh-heading", "system": "http://terminology.hl7.org/CodeSystem/cited-artifact-classification-type", "display": "MeSH heading"}]}, "component": [{"type": {"text": "qualifier"}, "classifier": [{"text": "is not a major topic"}]}, {"type": {"text": "qualifier"}, "component": [{"type": {"text": "is Major topic"}, "classifier": [{"coding": [{"code": "C49488", "system": "http://ncicb.nci.nih.gov/xml/owl/EVS/Thesaurus.owl", "display": "Yes"}]}]}], "classifier": [{"coding": [{"code": "Q000188", "system": "https://www.nlm.nih.gov/mesh", "display": "drug therapy"}]}]}, {"type": {"text": "qualifier"}, "component": [{"type": {"text": "is Major topic"}, "classifier": [{"coding": [{"code": "C49487", "system": "http://ncicb.nci.nih.gov/xml/owl/EVS/Thesaurus.owl", "display": "No"}]}]}], "classifier": [{"coding": [{"code": "Q000401", "system": "https://www.nlm.nih.gov/mesh", "display": "mortality"}]}]}], "classifier": [{"coding": [{"code": "D011471", "system": "https://www.nlm.nih.gov/mesh", "display": "Prostatic Neoplasms", "userSelected": false}]}], "freeToShare": true}, {"type": {"text": "components (if present) include qualifier codings", "coding": [{"code": "mesh-heading", "system": "http://terminology.hl7.org/CodeSystem/cited-artifact-classification-type", "display": "MeSH heading"}]}, "component": [{"type": {"text": "qualifier"}, "classifier": [{"text": "is not a major topic"}]}, {"type": {"text": "qualifier"}, "component": [{"type": {"text": "is Major topic"}, "classifier": [{"coding": [{"code": "C49488", "system": "http://ncicb.nci.nih.gov/xml/owl/EVS/Thesaurus.owl", "display": "Yes"}]}]}], "classifier": [{"coding": [{"code": "Q000008", "system": "https://www.nlm.nih.gov/mesh", "display": "administration & dosage"}]}]}, {"type": {"text": "qualifier"}, "component": [{"type": {"text": "is Major topic"}, "classifier": [{"coding": [{"code": "C49488", "system": "http://ncicb.nci.nih.gov/xml/owl/EVS/Thesaurus.owl", "display": "Yes"}]}]}], "classifier": [{"coding": [{"code": "Q000627", "system": "https://www.nlm.nih.gov/mesh", "display": "therapeutic use"}]}]}], "classifier": [{"coding": [{"code": "D043823", "system": "https://www.nlm.nih.gov/mesh", "display": "Taxoids", "userSelected": false}]}], "freeToShare": true}], "resourceType": "ArtifactAssessment", "artifactReference": {"type": "Citation", "reference": "#"}}], "copyright": "https://creativecommons.org/licenses/by-nc-sa/4.0/", "extension": [{"url": "http://hl7.org/fhir/uv/ebm/StructureDefinition/artifact-publication-status", "valueCodeableConcept": {"coding": [{"code": "active", "system": "http://terminology.hl7.org/CodeSystem/cited-artifact-status-type", "display": "Active"}]}}], "publisher": "Computable Publishing LLC", "identifier": [{"type": {"text": "FEvIR Object Identifier", "coding": [{"system": "http://terminology.hl7.org/CodeSystem/v2-0203", "code": "ACSN", "display": "Accession ID"}]}, "value": "179615", "system": "https://fevir.net/FOI", "assigner": {"display": "Computable Publishing LLC"}}, {"value": "23306100", "system": "https://pubmed.ncbi.nlm.nih.gov"}], "statusDate": [{"period": {"end": "2013-01-12T06:00:00.000Z"}, "activity": {"coding": [{"code": "pubmed-pubstatus-entrez", "system": "http://hl7.org/fhir/citation-status-type", "display": "PubMed Pubstatus of Entrez"}]}}, {"period": {"end": "2013-01-12T06:00:00.000Z"}, "activity": {"coding": [{"code": "pubmed-pubstatus-pubmed", "system": "http://hl7.org/fhir/citation-status-type", "display": "PubMed Pubstatus of Pubmed"}]}}, {"period": {"end": "2013-03-26T06:00:00.000Z"}, "activity": {"coding": [{"code": "pubmed-pubstatus-medline", "system": "http://hl7.org/fhir/citation-status-type", "display": "PubMed Pubstatus of Medline"}]}}], "useContext": [{"code": {"code": "fevir-platform-use", "system": "http://terminology.hl7.org/CodeSystem/citation-classification-type", "display": "FEvIR Platform Use"}, "valueCodeableConcept": {"coding": [{"code": "medline-base", "system": "http://terminology.hl7.org/CodeSystem/citation-artifact-classifier", "display": "Medline Base", "userSelected": false}]}}], "approvalDate": "2013-03-25", "currentState": [{"coding": [{"code": "medline-medline", "system": "http://hl7.org/fhir/citation-status-type", "display": "Medline Citation Status of Medline"}]}, {"coding": [{"code": "pubmed-publication-status-ppublish", "system": "http://hl7.org/fhir/citation-status-type", "display": "PubMed PublicationStatus of ppublish"}]}], "resourceType": "Citation", "citedArtifact": {"title": [{"text": "Androgen-deprivation therapy alone or with docetaxel in non-castrate metastatic prostate cancer (GETUG-AFU 15): a randomised, open-label, phase 3 trial.", "type": [{"coding": [{"code": "primary", "system": "http://terminology.hl7.org/CodeSystem/title-type", "display": "Primary title"}]}], "language": {"coding": [{"system": "urn:ietf:bcp:47", "code": "en", "display": "English"}]}}], "abstract": [{"text": "**BACKGROUND:** Early chemotherapy might improve the overall outcomes of patients with metastatic non-castrate (ie, hormone-sensitive) prostate cancer. We investigated the effects of the addition of docetaxel to androgen-deprivation therapy (ADT) for patients with metastatic non-castrate prostate cancer.\n**METHODS:** In this randomised, open-label, phase 3 study, we enrolled patients in 29 centres in France and one in Belgium. Eligible patients were older than 18 years and had histologically confirmed adenocarcinoma of the prostate and radiologically proven metastatic disease; a Karnofsky score of at least 70%; a life expectancy of at least 3 months; and adequate hepatic, haematological, and renal function. They were randomly assigned to receive to ADT (orchiectomy or luteinising hormone-releasing hormone agonists, alone or combined with non-steroidal antiandrogens) alone or in combination with docetaxel (75 mg/m(2) intravenously on the first day of each 21-day cycle; up to nine cycles). Patients were randomised in a 1:1 ratio, with dynamic minimisation to minimise imbalances in previous systemic treatment with ADT, chemotherapy for local disease or isolated rising concentration of serum prostate-specific antigen, and Glass risk groups. Patients, physicians, and data analysts were not masked to treatment allocation. The primary endpoint was overall survival. Efficacy analyses were done by intention to treat. This trial is registered with ClinicalTrials.gov, number NCT00104715.\n**FINDINGS:** Between Oct 18, 2004, and Dec 31, 2008, 192 patients were randomly allocated to receive ADT plus docetaxel and 193 to receive ADT alone. Median follow-up was 50 months (IQR 39-63). Median overall survival was 58\u00b79 months (95% CI 50\u00b78-69\u00b71) in the group given ADT plus docetaxel and 54\u00b72 months (42\u00b72-not reached) in that given ADT alone (hazard ratio 1\u00b701, 95% CI 0\u00b775-1\u00b736). 72 serious adverse events were reported in the group given ADT plus docetaxel, of which the most frequent were neutropenia (40 [21%]), febrile neutropenia (six [3%]), abnormal liver function tests (three [2%]), and neutropenia with infection (two [1%]). Four treatment-related deaths occurred in the ADT plus docetaxel group (two of which were neutropenia-related), after which the data monitoring committee recommended treatment with granulocyte colony-stimulating factor. After this recommendation, no further treatment-related deaths occurred. No serious adverse events were reported in the ADT alone group.\n**INTERPRETATION:** Docetaxel should not be used as part of first-line treatment for patients with non-castrate metastatic prostate cancer.\n**FUNDING:** French Health Ministry and Institut National du Cancer (PHRC), Sanofi-Aventis, AstraZeneca, and Amgen.", "type": {"coding": [{"code": "primary-human-use", "system": "http://terminology.hl7.org/CodeSystem/cited-artifact-abstract-type", "display": "Primary human use"}]}, "copyright": "Copyright \u00a9 2013 Elsevier Ltd. All rights reserved."}], "relatesTo": [{"type": "comment-in", "citation": "Lancet Oncol. 2013 Feb;14(2):104-5. doi: 10.1016/S1470-2045(12)70591-0.", "classifier": [{"coding": [{"code": "D016420", "system": "https://www.nlm.nih.gov/mesh", "display": "Comment", "userSelected": false}]}], "targetReference": {"reference": "https://pubmed.ncbi.nlm.nih.gov/23306099/", "identifier": {"value": "23306099", "system": "https://pubmed.ncbi.nlm.nih.gov", "assigner": {"display": "NLM"}}}}, {"type": "comment-in", "citation": "Nat Rev Urol. 2013 Mar;10(3):123. doi: 10.1038/nrurol.2013.12.", "classifier": [{"coding": [{"code": "D016420", "system": "https://www.nlm.nih.gov/mesh", "display": "Comment", "userSelected": false}]}], "targetReference": {"reference": "https://pubmed.ncbi.nlm.nih.gov/23358518/", "identifier": {"value": "23358518", "system": "https://pubmed.ncbi.nlm.nih.gov", "assigner": {"display": "NLM"}}}}, {"type": "comment-in", "citation": "J Urol. 2013 Dec;190(6):2094. doi: 10.1016/j.juro.2013.08.104.", "classifier": [{"coding": [{"code": "D016420", "system": "https://www.nlm.nih.gov/mesh", "display": "Comment", "userSelected": false}]}], "targetReference": {"reference": "https://pubmed.ncbi.nlm.nih.gov/24209521/", "identifier": {"value": "24209521", "system": "https://pubmed.ncbi.nlm.nih.gov", "assigner": {"display": "NLM"}}}}, {"type": "comment-in", "citation": "Urol Oncol. 2013 Nov;31(8):1845. doi: 10.1016/j.urolonc.2013.08.011.", "classifier": [{"coding": [{"code": "D016420", "system": "https://www.nlm.nih.gov/mesh", "display": "Comment", "userSelected": false}]}], "targetReference": {"reference": "https://pubmed.ncbi.nlm.nih.gov/24210084/", "identifier": {"value": "24210084", "system": "https://pubmed.ncbi.nlm.nih.gov", "assigner": {"display": "NLM"}}}}, {"type": "comment-in", "citation": "Actas Urol Esp. 2017 Jul - Aug;41(6):347-351. doi: 10.1016/j.acuro.2016.11.008.", "classifier": [{"coding": [{"code": "D016420", "system": "https://www.nlm.nih.gov/mesh", "display": "Comment", "userSelected": false}]}], "targetReference": {"reference": "https://pubmed.ncbi.nlm.nih.gov/28214037/", "identifier": {"value": "28214037", "system": "https://pubmed.ncbi.nlm.nih.gov", "assigner": {"display": "NLM"}}}}], "identifier": [{"value": "23306100", "system": "https://pubmed.ncbi.nlm.nih.gov"}, {"value": "10.1016/S1470-2045(12)70560-0", "system": "https://doi.org"}, {"type": {"text": "pii", "coding": [{"system": "http://terminology.hl7.org/CodeSystem/v2-0203", "code": "ACSN", "display": "Accession ID"}]}, "value": "S1470-2045(12)70560-0"}], "webLocation": [{"url": "https://pubmed.ncbi.nlm.nih.gov/23306100/", "classifier": [{"coding": [{"code": "abstract", "system": "http://terminology.hl7.org/CodeSystem/artifact-url-classifier", "display": "Abstract"}]}]}, {"url": "https://doi.org/10.1016/S1470-2045(12)70560-0", "classifier": [{"coding": [{"code": "doi-based", "system": "http://terminology.hl7.org/CodeSystem/artifact-url-classifier", "display": "DOI Based"}]}]}], "classification": [{"type": {"coding": [{"code": "publishing-model", "system": "http://terminology.hl7.org/CodeSystem/cited-artifact-classification-type", "display": "Publishing Model", "userSelected": false}]}, "classifier": [{"coding": [{"code": "Print-Electronic", "system": "http://terminology.hl7.org/CodeSystem/citation-artifact-classifier", "display": "Print Electronic", "userSelected": false}]}]}, {"type": {"coding": [{"code": "chemical", "system": "http://terminology.hl7.org/CodeSystem/cited-artifact-classification-type", "display": "Chemical", "userSelected": false}]}, "classifier": [{"coding": [{"code": "D000726", "system": "https://www.nlm.nih.gov/mesh", "display": "Androgen Antagonists", "userSelected": false}]}, {"coding": [{"code": "D043823", "system": "https://www.nlm.nih.gov/mesh", "display": "Taxoids", "userSelected": false}]}, {"coding": [{"code": "15H5577CQD", "system": "https://www.cas.org/support/documentation/chemical-substances", "userSelected": false}, {"code": "D000077143", "system": "https://www.nlm.nih.gov/mesh", "display": "Docetaxel", "userSelected": false}]}]}, {"type": {"coding": [{"code": "mesh-heading", "system": "http://terminology.hl7.org/CodeSystem/cited-artifact-classification-type", "display": "MeSH heading"}]}, "artifactAssessment": [{"type": "ArtifactAssessment", "reference": "#meshHeading0"}]}, {"type": {"coding": [{"code": "publication-type", "system": "http://terminology.hl7.org/CodeSystem/cited-artifact-classification-type", "display": "Publication type"}]}, "classifier": [{"coding": [{"code": "D017428", "system": "https://www.nlm.nih.gov/mesh", "display": "Clinical Trial, Phase III", "userSelected": false}]}, {"coding": [{"code": "D016428", "system": "https://www.nlm.nih.gov/mesh", "display": "Journal Article", "userSelected": false}]}, {"coding": [{"code": "D016449", "system": "https://www.nlm.nih.gov/mesh", "display": "Randomized Controlled Trial", "userSelected": false}]}, {"coding": [{"code": "D013485", "system": "https://www.nlm.nih.gov/mesh", "display": "Research Support, Non-U.S. Gov't", "userSelected": false}]}]}, {"type": {"coding": [{"code": "knowledge-artifact-type", "system": "http://terminology.hl7.org/CodeSystem/cited-artifact-classification-type", "display": "Knowledge Artifact Type", "userSelected": false}]}, "classifier": [{"coding": [{"code": "D016428", "system": "http://terminology.hl7.org/CodeSystem/citation-artifact-classifier", "display": "Journal Article", "userSelected": false}]}], "artifactAssessment": [{"display": "Classifier added by Computable Publishing LLC"}]}, {"type": {"coding": [{"code": "citation-subset", "system": "http://terminology.hl7.org/CodeSystem/cited-artifact-classification-type", "display": "Citation subset", "userSelected": false}]}, "classifier": [{"coding": [{"code": "IM", "system": "https://www.nlm.nih.gov/bsd/licensee/elements_descriptions.html#citationsubset", "display": "IM", "userSelected": false}]}]}], "contributorship": {"entry": [{"affiliation": [{"display": "Medical Oncology and Biostatistics, Institut Paoli-Calmettes, Marseille, France. gravisg@ipc.unicancer.fr"}], "contributor": {"type": "Practitioner", "display": "Gravis G", "reference": "#contributor0"}, "forenameInitials": "G"}, {"contributor": {"type": "Practitioner", "display": "Fizazi K", "reference": "#contributor1"}, "forenameInitials": "K"}, {"contributor": {"type": "Practitioner", "display": "Joly F", "reference": "#contributor2"}, "forenameInitials": "F"}, {"contributor": {"type": "Practitioner", "display": "Oudard S", "reference": "#contributor3"}, "forenameInitials": "S"}, {"contributor": {"type": "Practitioner", "display": "Priou F", "reference": "#contributor4"}, "forenameInitials": "F"}, {"contributor": {"type": "Practitioner", "display": "Esterni B", "reference": "#contributor5"}, "forenameInitials": "B"}, {"contributor": {"type": "Practitioner", "display": "Latorzeff I", "reference": "#contributor6"}, "forenameInitials": "I"}, {"contributor": {"type": "Practitioner", "display": "Delva R", "reference": "#contributor7"}, "forenameInitials": "R"}, {"contributor": {"type": "Practitioner", "display": "Krakowski I", "reference": "#contributor8"}, "forenameInitials": "I"}, {"contributor": {"type": "Practitioner", "display": "Laguerre B", "reference": "#contributor9"}, "forenameInitials": "B"}, {"contributor": {"type": "Practitioner", "display": "Rolland F", "reference": "#contributor10"}, "forenameInitials": "F"}, {"contributor": {"type": "Practitioner", "display": "Th\u00e9odore C", "reference": "#contributor11"}, "forenameInitials": "C"}, {"contributor": {"type": "Practitioner", "display": "Deplanque G", "reference": "#contributor12"}, "forenameInitials": "G"}, {"contributor": {"type": "Practitioner", "display": "Ferrero JM", "reference": "#contributor13"}, "forenameInitials": "JM"}, {"contributor": {"type": "Practitioner", "display": "Pouessel D", "reference": "#contributor14"}, "forenameInitials": "D"}, {"contributor": {"type": "Practitioner", "display": "Mourey L", "reference": "#contributor15"}, "forenameInitials": "L"}, {"contributor": {"type": "Practitioner", "display": "Beuzeboc P", "reference": "#contributor16"}, "forenameInitials": "P"}, {"contributor": {"type": "Practitioner", "display": "Zanetta S", "reference": "#contributor17"}, "forenameInitials": "S"}, {"contributor": {"type": "Practitioner", "display": "Habibian M", "reference": "#contributor18"}, "forenameInitials": "M"}, {"contributor": {"type": "Practitioner", "display": "Berdah JF", "reference": "#contributor19"}, "forenameInitials": "JF"}, {"contributor": {"type": "Practitioner", "display": "Dauba J", "reference": "#contributor20"}, "forenameInitials": "J"}, {"contributor": {"type": "Practitioner", "display": "Baciuchka M", "reference": "#contributor21"}, "forenameInitials": "M"}, {"contributor": {"type": "Practitioner", "display": "Platini C", "reference": "#contributor22"}, "forenameInitials": "C"}, {"contributor": {"type": "Practitioner", "display": "Linassier C", "reference": "#contributor23"}, "forenameInitials": "C"}, {"contributor": {"type": "Practitioner", "display": "Labourey JL", "reference": "#contributor24"}, "forenameInitials": "JL"}, {"contributor": {"type": "Practitioner", "display": "Machiels JP", "reference": "#contributor25"}, "forenameInitials": "JP"}, {"contributor": {"type": "Practitioner", "display": "El Kouri C", "reference": "#contributor26"}, "forenameInitials": "C"}, {"contributor": {"type": "Practitioner", "display": "Ravaud A", "reference": "#contributor27"}, "forenameInitials": "A"}, {"contributor": {"type": "Practitioner", "display": "Suc E", "reference": "#contributor28"}, "forenameInitials": "E"}, {"contributor": {"type": "Practitioner", "display": "Eymard JC", "reference": "#contributor29"}, "forenameInitials": "JC"}, {"contributor": {"type": "Practitioner", "display": "Hasbini A", "reference": "#contributor30"}, "forenameInitials": "A"}, {"contributor": {"type": "Practitioner", "display": "Bousquet G", "reference": "#contributor31"}, "forenameInitials": "G"}, {"contributor": {"type": "Practitioner", "display": "Soulie M", "reference": "#contributor32"}, "forenameInitials": "M"}], "complete": true}, "publicationForm": [{"issue": "2", "volume": "14", "pageString": "149-58", "articleDate": "2013-02", "citedMedium": {"coding": [{"code": "internet", "system": "http://terminology.hl7.org/CodeSystem/cited-medium", "display": "Internet"}]}, "publishedIn": {"type": {"coding": [{"code": "D020492", "system": "http://terminology.hl7.org/CodeSystem/published-in-type", "display": "Periodical"}]}, "title": "The Lancet. Oncology", "identifier": [{"type": {"text": "Electronic ISSN Type", "coding": [{"code": "Electronic", "system": "https://www.nlm.nih.gov/bsd/licensee/elements_descriptions.html#issn", "display": "Electronic"}]}, "value": "1474-5488", "system": "https://portal.issn.org"}, {"type": {"text": "ISOAbbreviation", "coding": [{"system": "http://terminology.hl7.org/CodeSystem/v2-0203", "code": "XX", "display": "Organization identifier"}]}, "value": "Lancet Oncol", "system": "https://www.issn.org/services/online-services/access-to-the-ltwa/"}, {"type": {"text": "ISSN Linking", "coding": [{"system": "http://terminology.hl7.org/CodeSystem/v2-0203", "code": "XX", "display": "Organization identifier"}]}, "value": "1470-2045", "system": "https://www.issn.org/understanding-the-issn/assignment-rules/the-issn-l-for-publications-on-multiple-media/"}, {"type": {"text": "Medline Title Abbreviation", "coding": [{"system": "http://terminology.hl7.org/CodeSystem/v2-0203", "code": "XX", "display": "Organization identifier"}]}, "value": "Lancet Oncol", "system": "https://www.nlm.nih.gov/tsd/cataloging/contructitleabbre.html"}, {"type": {"text": "NLM Unique ID", "coding": [{"system": "http://terminology.hl7.org/CodeSystem/v2-0203", "code": "XX", "display": "Organization identifier"}]}, "value": "100957246", "system": "https://locatorplus.gov/cgi-bin/Pwebrecon.cgi?DB=local"}], "publisherLocation": "England"}}, {"articleDate": "2013-01-08", "citedMedium": {"coding": [{"code": "internet-without-issue", "system": "http://terminology.hl7.org/CodeSystem/cited-medium", "display": "Internet without issue"}]}}], "relatedIdentifier": [{"value": "NCT00104715", "system": "https://clinicaltrials.gov", "assigner": {"display": "ClinicalTrials.gov"}}]}, "classification": [{"type": {"coding": [{"code": "citation-source", "system": "http://terminology.hl7.org/CodeSystem/citation-classification-type", "display": "Citation Source"}]}, "classifier": [{"text": "MEDLINE"}]}, {"type": {"coding": [{"code": "medline-owner", "system": "http://terminology.hl7.org/CodeSystem/citation-classification-type", "display": "MEDLINE Citation Owner"}]}, "classifier": [{"coding": [{"code": "NLM", "system": "https://www.nlm.nih.gov/bsd/licensee/elements_descriptions.html#owner_value", "display": "National Library of Medicine, Index Section", "userSelected": false}]}]}], "lastReviewDate": "2022-12-08", "description": "This Citation Resource is referenced in an example for the EBMonFHIR Implementation Guide."}