{"resourceType": "Citation", "title": "Citation for Composition: ComparativeEvidenceReport: Association of Bariatric Surgery vs Medical Obesity Treatment With Long-term Medical Complications and Obesity-Related Comorbidities (2018 Norwegian Cohort)", "status": "active", "publisher": "Computable Publishing LLC", "contact": [{"telecom": [{"system": "email", "value": "support@computablepublishing.com"}]}], "description": "A citation of a Resource on the FEvIR Platform", "useContext": [{"code": {"system": "http://terminology.hl7.org/CodeSystem/citation-classification-type", "code": "fevir-platform-use", "display": "FEvIR Platform Use"}, "valueCodeableConcept": {"coding": [{"system": "http://terminology.hl7.org/CodeSystem/citation-artifact-classifier", "code": "fhir-resource", "display": "FHIR Resource"}]}}], "copyright": "https://creativecommons.org/licenses/by-nc-sa/4.0/", "author": [{"name": "automated generation from FEvIR Platform"}], "summary": [{"style": {"coding": [{"system": "http://hl7.org/fhir/citation-summary-style", "code": "comppub", "display": "Computable Publishing"}]}, "text": "ComparativeEvidenceReport: Association of Bariatric Surgery vs Medical Obesity Treatment With Long-term Medical Complications and Obesity-Related Comorbidities (2018 Norwegian Cohort) [Database Entry]. Contributors: Brian S. Alper, Khalid Shahin, Joanne Dehnbostel [Authors]. In: Fast Evidence Interoperability Resources (FEvIR) Platform, FOI 178426. Revised May 16, 2024. Available at: https://fevir.net/FLI/DocumentForComposition178426. Computable resource at: https://fevir.net/FLI/DocumentForComposition178426."}], "citedArtifact": {"identifier": [{"type": {"text": "FEvIR Object Identifier", "coding": [{"system": "http://terminology.hl7.org/CodeSystem/v2-0203", "code": "ACSN", "display": "Accession ID"}]}, "system": "https://fevir.net", "value": "178426", "assigner": {"display": "Computable Publishing LLC"}}], "title": [{"type": [{"coding": [{"system": "http://terminology.hl7.org/CodeSystem/title-type", "code": "human-use", "display": "Human use"}]}], "text": "ComparativeEvidenceReport: Association of Bariatric Surgery vs Medical Obesity Treatment With Long-term Medical Complications and Obesity-Related Comorbidities (2018 Norwegian Cohort)"}], "publicationForm": [{"publishedIn": {"type": {"coding": [{"system": "http://terminology.hl7.org/CodeSystem/published-in-type", "code": "D019991", "display": "Database"}]}, "title": "Fast Evidence Interoperability Resources (FEvIR) Platform", "publisher": {"display": "Computable Publishing LLC"}, "publisherLocation": "Ipswich, MA, USA"}, "citedMedium": {"coding": [{"system": "http://terminology.hl7.org/CodeSystem/cited-medium", "code": "Internet", "display": "Internet"}]}, "lastRevisionDate": "2024-05-16", "language": [{"text": "[Not specified.]"}], "accessionNumber": "178426", "copyright": "https://creativecommons.org/licenses/by-nc-sa/4.0/"}], "webLocation": [{"classifier": [{"coding": [{"system": "http://terminology.hl7.org/CodeSystem/artifact-url-classifier", "code": "computable-resource", "display": "Computable resource"}]}, {"coding": [{"system": "http://hl7.org/fhir/fhir-types", "code": "Bundle", "display": "Bundle"}]}], "url": "https://fevir.net/FLI/DocumentForComposition178426"}, {"classifier": [{"coding": [{"system": "http://terminology.hl7.org/CodeSystem/artifact-url-classifier", "code": "computable-resource", "display": "Computable resource"}]}, {"coding": [{"system": "http://hl7.org/fhir/fhir-types", "code": "Composition", "display": "Composition"}]}], "url": "https://fevir.net/resources/Composition/178426"}], "classification": [{"type": {"coding": [{"system": "http://terminology.hl7.org/CodeSystem/cited-artifact-classification-type", "code": "knowledge-artifact-type", "display": "Knowledge Artifact Type"}]}, "classifier": [{"coding": [{"system": "https://fevir.net/resources/CodeSystem/179423", "code": "classified-as-database-entry", "display": "Database Entry"}]}, {"coding": [{"system": "http://terminology.hl7.org/CodeSystem/citation-artifact-classifier", "code": "fhir-resource", "display": "FHIR Resource"}]}]}, {"type": {"coding": [{"system": "http://hl7.org/fhir/citation-artifact-classifier", "code": "fhir-resource", "display": "FHIR Resource"}]}, "classifier": [{"coding": [{"system": "http://hl7.org/fhir/fhir-types", "code": "Composition", "display": "Composition"}]}]}], "contributorship": {"entry": [{"contributor": {"display": "Brian S. Alper", "reference": "#contributor0", "type": "Practitioner"}, "role": {"coding": [{"system": "http://hl7.org/fhir/contributor-role", "code": "author", "display": "Author/Creator"}]}}, {"contributor": {"display": "Khalid Shahin", "reference": "#contributor1", "type": "Practitioner"}, "role": {"coding": [{"system": "http://hl7.org/fhir/contributor-role", "code": "author", "display": "Author/Creator"}]}}, {"contributor": {"display": "Joanne Dehnbostel", "reference": "#contributor2", "type": "Practitioner"}, "role": {"coding": [{"system": "http://hl7.org/fhir/contributor-role", "code": "author", "display": "Author/Creator"}]}}]}}, "meta": {"versionId": "6", "lastUpdated": "2025-10-11T21:20:49.915Z", "profile": ["http://hl7.org/fhir/uv/ebm/StructureDefinition/database-entry-citation"]}, "url": "https://fevir.net/resources/Citation/247416", "id": "247416", "identifier": [{"type": {"text": "FEvIR Object Identifier", "coding": [{"system": "http://terminology.hl7.org/CodeSystem/v2-0203", "code": "ACSN", "display": "Accession ID"}]}, "system": "https://fevir.net/FOI", "value": "247416", "assigner": {"display": "Computable Publishing LLC"}}], "contained": [{"resourceType": "Practitioner", "id": "contributor0"}, {"resourceType": "Practitioner", "id": "contributor1"}, {"resourceType": "Practitioner", "id": "contributor2"}], "extension": [{"url": "http://hl7.org/fhir/uv/ebm/StructureDefinition/artifact-publication-status", "valueCodeableConcept": {"coding": [{"system": "http://terminology.hl7.org/CodeSystem/cited-artifact-status-type", "code": "active", "display": "Active"}]}}]}