{"id": "370510", "url": "https://fevir.net/resources/Composition/370510", "date": "2025-10-11T10:35:13.276Z", "meta": {"profile": ["http://hl7.org/fhir/uv/ebm/StructureDefinition/baseline-measure-report"], "versionId": "12", "lastUpdated": "2025-10-11T10:35:13.276Z"}, "type": {"text": "Baseline Measure Report", "coding": [{"code": "BaselineMeasureReport", "system": "https://fevir.net/resources/CodeSystem/179423", "display": "BaselineMeasureReport"}]}, "title": "Baseline Characteristics Report for QUARTET Trial", "author": [{"display": "Joanne Dehnbostel"}], "status": "final", "language": "en-US", "contained": [{"id": "NCT03640312-BaselineMeasure-0", "meta": {"profile": ["http://hl7.org/fhir/uv/ebm/StructureDefinition/variable-definition"]}, "title": "Age, Continuous", "status": "active", "handling": "extension", "extension": [{"url": "http://hl7.org/fhir/uv/ebm/StructureDefinition/evidence-variable-handling-detail", "valueCodeableConcept": {"coding": [{"code": "evidence-variable-handling-not-specified", "system": "https://fevir.net/resources/CodeSystem/179423", "display": "Evidence variable handling not specified"}]}}], "classifier": [{"text": "Baseline Measure"}], "definition": {"reference": {"type": "Group", "reference": "#variable-definition-NCT03640312-BaselineMeasure-0"}}, "resourceType": "EvidenceVariable"}, {"id": "variable-definition-NCT03640312-BaselineMeasure-0", "membership": "conceptual", "resourceType": "Group", "characteristic": [{"code": {"text": "defined by CodeableConcept"}, "timing": [{"offsetDuration": {"value": 0}}], "exclude": false, "valueCodeableConcept": {"text": "Age, Continuous"}}]}, {"id": "NCT03640312-BaselineMeasure-1", "meta": {"profile": ["http://hl7.org/fhir/uv/ebm/StructureDefinition/variable-definition"]}, "title": "Sex: Female, Male", "status": "active", "category": [{"name": "Female"}, {"name": "Male"}], "handling": "extension", "extension": [{"url": "http://hl7.org/fhir/uv/ebm/StructureDefinition/evidence-variable-handling-detail", "valueCodeableConcept": {"coding": [{"code": "evidence-variable-handling-not-specified", "system": "https://fevir.net/resources/CodeSystem/179423", "display": "Evidence variable handling not specified"}]}}], "classifier": [{"text": "Baseline Measure"}], "definition": {"reference": {"type": "Group", "reference": "#variable-definition-NCT03640312-BaselineMeasure-1"}}, "resourceType": "EvidenceVariable"}, {"id": "variable-definition-NCT03640312-BaselineMeasure-1", "membership": "conceptual", "resourceType": "Group", "characteristic": [{"code": {"text": "defined by CodeableConcept"}, "timing": [{"offsetDuration": {"value": 0}}], "exclude": false, "valueCodeableConcept": {"text": "Sex: Female, Male"}}]}, {"id": "NCT03640312-BaselineMeasure-2", "meta": {"profile": ["http://hl7.org/fhir/uv/ebm/StructureDefinition/variable-definition"]}, "title": "Race/Ethnicity, Customized", "status": "active", "category": [{"name": "Race/Ethnicity:: Hispanic"}, {"name": "Race/Ethnicity:: Black/Sub Saharan African"}, {"name": "Race/Ethnicity:: White/Caucasian/Other"}], "handling": "extension", "extension": [{"url": "http://hl7.org/fhir/uv/ebm/StructureDefinition/evidence-variable-handling-detail", "valueCodeableConcept": {"coding": [{"code": "evidence-variable-handling-not-specified", "system": "https://fevir.net/resources/CodeSystem/179423", "display": "Evidence variable handling not specified"}]}}], "classifier": [{"text": "Baseline Measure"}], "definition": {"reference": {"type": "Group", "reference": "#variable-definition-NCT03640312-BaselineMeasure-2"}}, "resourceType": "EvidenceVariable"}, {"id": "variable-definition-NCT03640312-BaselineMeasure-2", "membership": "conceptual", "resourceType": "Group", "characteristic": [{"code": {"text": "defined by CodeableConcept"}, "timing": [{"offsetDuration": {"value": 0}}], "exclude": false, "valueCodeableConcept": {"text": "Race/Ethnicity, Customized"}}]}, {"id": "NCT03640312-BaselineMeasure-3", "meta": {"profile": ["http://hl7.org/fhir/uv/ebm/StructureDefinition/variable-definition"]}, "title": "Body Mass Index, kg/m^2", "status": "active", "handling": "extension", "extension": [{"url": "http://hl7.org/fhir/uv/ebm/StructureDefinition/evidence-variable-handling-detail", "valueCodeableConcept": {"coding": [{"code": "evidence-variable-handling-not-specified", "system": "https://fevir.net/resources/CodeSystem/179423", "display": "Evidence variable handling not specified"}]}}], "classifier": [{"text": "Baseline Measure"}], "definition": {"reference": {"type": "Group", "reference": "#variable-definition-NCT03640312-BaselineMeasure-3"}}, "resourceType": "EvidenceVariable"}, {"id": "variable-definition-NCT03640312-BaselineMeasure-3", "membership": "conceptual", "resourceType": "Group", "characteristic": [{"code": {"text": "defined by CodeableConcept"}, "timing": [{"offsetDuration": {"value": 0}}], "exclude": false, "valueCodeableConcept": {"text": "Body Mass Index, kg/m^2"}}]}, {"id": "NCT03640312-BaselineMeasure-4", "meta": {"profile": ["http://hl7.org/fhir/uv/ebm/StructureDefinition/variable-definition"]}, "title": "Heart rate, beats per minute", "status": "active", "handling": "extension", "extension": [{"url": "http://hl7.org/fhir/uv/ebm/StructureDefinition/evidence-variable-handling-detail", "valueCodeableConcept": {"coding": [{"code": "evidence-variable-handling-not-specified", "system": "https://fevir.net/resources/CodeSystem/179423", "display": "Evidence variable handling not specified"}]}}], "classifier": [{"text": "Baseline Measure"}], "definition": {"reference": {"type": "Group", "reference": "#variable-definition-NCT03640312-BaselineMeasure-4"}}, "resourceType": "EvidenceVariable"}, {"id": "variable-definition-NCT03640312-BaselineMeasure-4", "membership": "conceptual", "resourceType": "Group", "characteristic": [{"code": {"text": "defined by CodeableConcept"}, "timing": [{"offsetDuration": {"value": 0}}], "exclude": false, "valueCodeableConcept": {"text": "Heart rate, beats per minute"}}]}, {"id": "NCT03640312-BaselineMeasure-5", "meta": {"profile": ["http://hl7.org/fhir/uv/ebm/StructureDefinition/variable-definition"]}, "title": "History of diabetes, n (%)", "status": "active", "handling": "extension", "extension": [{"url": "http://hl7.org/fhir/uv/ebm/StructureDefinition/evidence-variable-handling-detail", "valueCodeableConcept": {"coding": [{"code": "evidence-variable-handling-not-specified", "system": "https://fevir.net/resources/CodeSystem/179423", "display": "Evidence variable handling not specified"}]}}], "classifier": [{"text": "Baseline Measure"}], "definition": {"reference": {"type": "Group", "reference": "#variable-definition-NCT03640312-BaselineMeasure-5"}}, "resourceType": "EvidenceVariable"}, {"id": "variable-definition-NCT03640312-BaselineMeasure-5", "membership": "conceptual", "resourceType": "Group", "characteristic": [{"code": {"text": "defined by CodeableConcept"}, "timing": [{"offsetDuration": {"value": 0}}], "exclude": false, "valueCodeableConcept": {"text": "History of diabetes, n (%)"}}]}, {"id": "NCT03640312-BaselineMeasure-6", "meta": {"profile": ["http://hl7.org/fhir/uv/ebm/StructureDefinition/variable-definition"]}, "title": "History of smoking, n (%)", "status": "active", "handling": "extension", "extension": [{"url": "http://hl7.org/fhir/uv/ebm/StructureDefinition/evidence-variable-handling-detail", "valueCodeableConcept": {"coding": [{"code": "evidence-variable-handling-not-specified", "system": "https://fevir.net/resources/CodeSystem/179423", "display": "Evidence variable handling not specified"}]}}], "classifier": [{"text": "Baseline Measure"}], "definition": {"reference": {"type": "Group", "reference": "#variable-definition-NCT03640312-BaselineMeasure-6"}}, "resourceType": "EvidenceVariable"}, {"id": "variable-definition-NCT03640312-BaselineMeasure-6", "membership": "conceptual", "resourceType": "Group", "characteristic": [{"code": {"text": "defined by CodeableConcept"}, "timing": [{"offsetDuration": {"value": 0}}], "exclude": false, "valueCodeableConcept": {"text": "History of smoking, n (%)"}}]}, {"id": "NCT03640312-BaselineMeasure-7", "meta": {"profile": ["http://hl7.org/fhir/uv/ebm/StructureDefinition/variable-definition"]}, "title": "History of depression, n (%)", "status": "active", "handling": "extension", "extension": [{"url": "http://hl7.org/fhir/uv/ebm/StructureDefinition/evidence-variable-handling-detail", "valueCodeableConcept": {"coding": [{"code": "evidence-variable-handling-not-specified", "system": "https://fevir.net/resources/CodeSystem/179423", "display": "Evidence variable handling not specified"}]}}], "classifier": [{"text": "Baseline Measure"}], "definition": {"reference": {"type": "Group", "reference": "#variable-definition-NCT03640312-BaselineMeasure-7"}}, "resourceType": "EvidenceVariable"}, {"id": "variable-definition-NCT03640312-BaselineMeasure-7", "membership": "conceptual", "resourceType": "Group", "characteristic": [{"code": {"text": "defined by CodeableConcept"}, "timing": [{"offsetDuration": {"value": 0}}], "exclude": false, "valueCodeableConcept": {"text": "History of depression, n (%)"}}]}, {"id": "NCT03640312-BaselineMeasure-8", "meta": {"profile": ["http://hl7.org/fhir/uv/ebm/StructureDefinition/variable-definition"]}, "title": "Weekly alcohol use, n (%)", "status": "active", "handling": "extension", "extension": [{"url": "http://hl7.org/fhir/uv/ebm/StructureDefinition/evidence-variable-handling-detail", "valueCodeableConcept": {"coding": [{"code": "evidence-variable-handling-not-specified", "system": "https://fevir.net/resources/CodeSystem/179423", "display": "Evidence variable handling not specified"}]}}], "classifier": [{"text": "Baseline Measure"}], "definition": {"reference": {"type": "Group", "reference": "#variable-definition-NCT03640312-BaselineMeasure-8"}}, "resourceType": "EvidenceVariable"}, {"id": "variable-definition-NCT03640312-BaselineMeasure-8", "membership": "conceptual", "resourceType": "Group", "characteristic": [{"code": {"text": "defined by CodeableConcept"}, "timing": [{"offsetDuration": {"value": 0}}], "exclude": false, "valueCodeableConcept": {"text": "Weekly alcohol use, n (%)"}}]}, {"id": "NCT03640312-BaselineMeasure-9", "meta": {"profile": ["http://hl7.org/fhir/uv/ebm/StructureDefinition/variable-definition"]}, "title": "Systolic Blood Pressure, mm Hg", "status": "active", "handling": "extension", "extension": [{"url": "http://hl7.org/fhir/uv/ebm/StructureDefinition/evidence-variable-handling-detail", "valueCodeableConcept": {"coding": [{"code": "evidence-variable-handling-not-specified", "system": "https://fevir.net/resources/CodeSystem/179423", "display": "Evidence variable handling not specified"}]}}], "classifier": [{"text": "Baseline Measure"}], "definition": {"reference": {"type": "Group", "reference": "#variable-definition-NCT03640312-BaselineMeasure-9"}}, "resourceType": "EvidenceVariable"}, {"id": "variable-definition-NCT03640312-BaselineMeasure-9", "membership": "conceptual", "resourceType": "Group", "characteristic": [{"code": {"text": "defined by CodeableConcept"}, "timing": [{"offsetDuration": {"value": 0}}], "exclude": false, "valueCodeableConcept": {"text": "Systolic Blood Pressure, mm Hg"}}]}, {"id": "NCT03640312-BaselineMeasure-10", "meta": {"profile": ["http://hl7.org/fhir/uv/ebm/StructureDefinition/variable-definition"]}, "title": "Diastolic Blood Pressure, mm Hg", "status": "active", "handling": "extension", "extension": [{"url": "http://hl7.org/fhir/uv/ebm/StructureDefinition/evidence-variable-handling-detail", "valueCodeableConcept": {"coding": [{"code": "evidence-variable-handling-not-specified", "system": "https://fevir.net/resources/CodeSystem/179423", "display": "Evidence variable handling not specified"}]}}], "classifier": [{"text": "Baseline Measure"}], "definition": {"reference": {"type": "Group", "reference": "#variable-definition-NCT03640312-BaselineMeasure-10"}}, "resourceType": "EvidenceVariable"}, {"id": "variable-definition-NCT03640312-BaselineMeasure-10", "membership": "conceptual", "resourceType": "Group", "characteristic": [{"code": {"text": "defined by CodeableConcept"}, "timing": [{"offsetDuration": {"value": 0}}], "exclude": false, "valueCodeableConcept": {"text": "Diastolic Blood Pressure, mm Hg"}}]}, {"id": "BG000", "code": {"text": "Participants"}, "name": "QUARTET LDQT", "type": "person", "quantity": 32, "membership": "enumerated", "description": "Patients randomized to the intervention arm took a once daily ultra-low-dose quadruple combination therapy (QUARTET LDQT). The LDQT is an overencapsulated combination pill comprising four types of blood pressure lowering medications each at \u00bc standard doses. QUARTET includes candesartan 2mg, amlodipine besylate 1.25mg, indapamide 0.625mg, and bisoprolol 2.5mg. The individual components are currently approved and marketed within the United States.\n\nQUARTET LDQT: Ultra-low-dose combination therapy comprising four different blood pressure lowering drugs at 1/4 dosages. Taken once daily for 12 weeks.", "resourceType": "Group", "characteristic": [{"code": {"text": "Research Study from which this is a baseline group"}, "exclude": false, "valueReference": {"display": "NCT03640312"}}]}, {"id": "BG001", "code": {"text": "Participants"}, "name": "Candesartan", "type": "person", "quantity": 30, "membership": "enumerated", "description": "Patients randomized to the comparison arm took a once daily 8mg candesartan.\n\nCandesartan: Standard monotherapy of 8mg candesartan. Taken once daily for 12 weeks.", "resourceType": "Group", "characteristic": [{"code": {"text": "Research Study from which this is a baseline group"}, "exclude": false, "valueReference": {"display": "NCT03640312"}}]}, {"id": "BG002", "code": {"text": "Participants"}, "name": "Total", "type": "person", "quantity": 62, "membership": "enumerated", "description": "Total of all reporting groups", "resourceType": "Group", "characteristic": [{"code": {"text": "Research Study from which this is a baseline group"}, "exclude": false, "valueReference": {"display": "NCT03640312"}}]}, {"id": "NCT03640312-BaselineMeasure-0-BG000", "meta": {"profile": ["http://hl7.org/fhir/uv/ebm/StructureDefinition/non-comparative-evidence"]}, "name": "NCT03640312_BaselineMeasure_0_BG000", "title": "Age, Continuous for QUARTET LDQT at baseline in NCT03640312", "status": "active", "statistic": [{"quantity": {"unit": "years", "value": 52}, "sampleSize": {"knownDataCount": 32}, "statisticType": {"coding": [{"code": "STATO:0000573", "system": "https://fevir.net/sevco", "display": "mean"}]}, "attributeEstimate": [{"type": {"text": "Standard Deviation"}, "quantity": {"unit": "years", "value": 12.6}}]}], "resourceType": "Evidence", "variableDefinition": [{"observed": {"type": "Group", "display": "QUARTET LDQT", "reference": "#BG000"}, "variableRole": "population"}, {"observed": {"type": "EvidenceVariable", "display": "Age, Continuous", "reference": "#NCT03640312-BaselineMeasure-0"}, "variableRole": "outcome"}]}, {"id": "NCT03640312-BaselineMeasure-0-BG001", "meta": {"profile": ["http://hl7.org/fhir/uv/ebm/StructureDefinition/non-comparative-evidence"]}, "name": "NCT03640312_BaselineMeasure_0_BG001", "title": "Age, Continuous for Candesartan at baseline in NCT03640312", "status": "active", "statistic": [{"quantity": {"unit": "years", "value": 52}, "sampleSize": {"knownDataCount": 30}, "statisticType": {"coding": [{"code": "STATO:0000573", "system": "https://fevir.net/sevco", "display": "mean"}]}, "attributeEstimate": [{"type": {"text": "Standard Deviation"}, "quantity": {"unit": "years", "value": 10.5}}]}], "resourceType": "Evidence", "variableDefinition": [{"observed": {"type": "Group", "display": "Candesartan", "reference": "#BG001"}, "variableRole": "population"}, {"observed": {"type": "EvidenceVariable", "display": "Age, Continuous", "reference": "#NCT03640312-BaselineMeasure-0"}, "variableRole": "outcome"}]}, {"id": "NCT03640312-BaselineMeasure-0-BG002", "meta": {"profile": ["http://hl7.org/fhir/uv/ebm/StructureDefinition/non-comparative-evidence"]}, "name": "NCT03640312_BaselineMeasure_0_BG002", "title": "Age, Continuous for Total at baseline in NCT03640312", "status": "active", "statistic": [{"quantity": {"unit": "years", "value": 52}, "sampleSize": {"knownDataCount": 62}, "statisticType": {"coding": [{"code": "STATO:0000573", "system": "https://fevir.net/sevco", "display": "mean"}]}, "attributeEstimate": [{"type": {"text": "Standard Deviation"}, "quantity": {"unit": "years", "value": 11.5}}]}], "resourceType": "Evidence", "variableDefinition": [{"observed": {"type": "Group", "display": "Total", "reference": "#BG002"}, "variableRole": "population"}, {"observed": {"type": "EvidenceVariable", "display": "Age, Continuous", "reference": "#NCT03640312-BaselineMeasure-0"}, "variableRole": "outcome"}]}, {"id": "NCT03640312-BaselineMeasure-1-BG000", "meta": {"profile": ["http://hl7.org/fhir/uv/ebm/StructureDefinition/non-comparative-evidence"]}, "name": "NCT03640312_BaselineMeasure_1_BG000", "title": "Sex: Female, Male for QUARTET LDQT at baseline in NCT03640312", "status": "active", "statistic": [{"category": {"text": "Female"}, "quantity": {"unit": "Participants", "value": 15}, "sampleSize": {"knownDataCount": 32}, "statisticType": {"text": "Count of Participants", "coding": [{"code": "STATO:0000047", "system": "https://fevir.net/sevco", "display": "count"}]}}, {"category": {"text": "Male"}, "quantity": {"unit": "Participants", "value": 17}, "sampleSize": {"knownDataCount": 32}, "statisticType": {"text": "Count of Participants", "coding": [{"code": "STATO:0000047", "system": "https://fevir.net/sevco", "display": "count"}]}}], "resourceType": "Evidence", "variableDefinition": [{"observed": {"type": "Group", "display": "QUARTET LDQT", "reference": "#BG000"}, "variableRole": "population"}, {"observed": {"type": "EvidenceVariable", "display": "Sex: Female, Male", "reference": "#NCT03640312-BaselineMeasure-1"}, "variableRole": "outcome"}]}, {"id": "NCT03640312-BaselineMeasure-1-BG001", "meta": {"profile": ["http://hl7.org/fhir/uv/ebm/StructureDefinition/non-comparative-evidence"]}, "name": "NCT03640312_BaselineMeasure_1_BG001", "title": "Sex: Female, Male for Candesartan at baseline in NCT03640312", "status": "active", "statistic": [{"category": {"text": "Female"}, "quantity": {"unit": "Participants", "value": 13}, "sampleSize": {"knownDataCount": 30}, "statisticType": {"text": "Count of Participants", "coding": [{"code": "STATO:0000047", "system": "https://fevir.net/sevco", "display": "count"}]}}, {"category": {"text": "Male"}, "quantity": {"unit": "Participants", "value": 17}, "sampleSize": {"knownDataCount": 30}, "statisticType": {"text": "Count of Participants", "coding": [{"code": "STATO:0000047", "system": "https://fevir.net/sevco", "display": "count"}]}}], "resourceType": "Evidence", "variableDefinition": [{"observed": {"type": "Group", "display": "Candesartan", "reference": "#BG001"}, "variableRole": "population"}, {"observed": {"type": "EvidenceVariable", "display": "Sex: Female, Male", "reference": "#NCT03640312-BaselineMeasure-1"}, "variableRole": "outcome"}]}, {"id": "NCT03640312-BaselineMeasure-1-BG002", "meta": {"profile": ["http://hl7.org/fhir/uv/ebm/StructureDefinition/non-comparative-evidence"]}, "name": "NCT03640312_BaselineMeasure_1_BG002", "title": "Sex: Female, Male for Total at baseline in NCT03640312", "status": "active", "statistic": [{"category": {"text": "Female"}, "quantity": {"unit": "Participants", "value": 28}, "sampleSize": {"knownDataCount": 62}, "statisticType": {"text": "Count of Participants", "coding": [{"code": "STATO:0000047", "system": "https://fevir.net/sevco", "display": "count"}]}}, {"category": {"text": "Male"}, "quantity": {"unit": "Participants", "value": 34}, "sampleSize": {"knownDataCount": 62}, "statisticType": {"text": "Count of Participants", "coding": [{"code": "STATO:0000047", "system": "https://fevir.net/sevco", "display": "count"}]}}], "resourceType": "Evidence", "variableDefinition": [{"observed": {"type": "Group", "display": "Total", "reference": "#BG002"}, "variableRole": "population"}, {"observed": {"type": "EvidenceVariable", "display": "Sex: Female, Male", "reference": "#NCT03640312-BaselineMeasure-1"}, "variableRole": "outcome"}]}, {"id": "NCT03640312-BaselineMeasure-2-BG000", "meta": {"profile": ["http://hl7.org/fhir/uv/ebm/StructureDefinition/non-comparative-evidence"]}, "name": "NCT03640312_BaselineMeasure_2_BG000", "title": "Race/Ethnicity, Customized for QUARTET LDQT at baseline in NCT03640312", "status": "active", "statistic": [{"category": {"text": "Race/Ethnicity:: Hispanic"}, "quantity": {"unit": "Participants", "value": 24}, "sampleSize": {"knownDataCount": 32}, "statisticType": {"text": "Count of Participants", "coding": [{"code": "STATO:0000047", "system": "https://fevir.net/sevco", "display": "count"}]}}, {"category": {"text": "Race/Ethnicity:: Black/Sub Saharan African"}, "quantity": {"unit": "Participants", "value": 4}, "sampleSize": {"knownDataCount": 32}, "statisticType": {"text": "Count of Participants", "coding": [{"code": "STATO:0000047", "system": "https://fevir.net/sevco", "display": "count"}]}}, {"category": {"text": "Race/Ethnicity:: White/Caucasian/Other"}, "quantity": {"unit": "Participants", "value": 4}, "sampleSize": {"knownDataCount": 32}, "statisticType": {"text": "Count of Participants", "coding": [{"code": "STATO:0000047", "system": "https://fevir.net/sevco", "display": "count"}]}}], "resourceType": "Evidence", "variableDefinition": [{"observed": {"type": "Group", "display": "QUARTET LDQT", "reference": "#BG000"}, "variableRole": "population"}, {"observed": {"type": "EvidenceVariable", "display": "Race/Ethnicity, Customized", "reference": "#NCT03640312-BaselineMeasure-2"}, "variableRole": "outcome"}]}, {"id": "NCT03640312-BaselineMeasure-2-BG001", "meta": {"profile": ["http://hl7.org/fhir/uv/ebm/StructureDefinition/non-comparative-evidence"]}, "name": "NCT03640312_BaselineMeasure_2_BG001", "title": "Race/Ethnicity, Customized for Candesartan at baseline in NCT03640312", "status": "active", "statistic": [{"category": {"text": "Race/Ethnicity:: Hispanic"}, "quantity": {"unit": "Participants", "value": 21}, "sampleSize": {"knownDataCount": 30}, "statisticType": {"text": "Count of Participants", "coding": [{"code": "STATO:0000047", "system": "https://fevir.net/sevco", "display": "count"}]}}, {"category": {"text": "Race/Ethnicity:: Black/Sub Saharan African"}, "quantity": {"unit": "Participants", "value": 7}, "sampleSize": {"knownDataCount": 30}, "statisticType": {"text": "Count of Participants", "coding": [{"code": "STATO:0000047", "system": "https://fevir.net/sevco", "display": "count"}]}}, {"category": {"text": "Race/Ethnicity:: White/Caucasian/Other"}, "quantity": {"unit": "Participants", "value": 2}, "sampleSize": {"knownDataCount": 30}, "statisticType": {"text": "Count of Participants", "coding": [{"code": "STATO:0000047", "system": "https://fevir.net/sevco", "display": "count"}]}}], "resourceType": "Evidence", "variableDefinition": [{"observed": {"type": "Group", "display": "Candesartan", "reference": "#BG001"}, "variableRole": "population"}, {"observed": {"type": "EvidenceVariable", "display": "Race/Ethnicity, Customized", "reference": "#NCT03640312-BaselineMeasure-2"}, "variableRole": "outcome"}]}, {"id": "NCT03640312-BaselineMeasure-2-BG002", "meta": {"profile": ["http://hl7.org/fhir/uv/ebm/StructureDefinition/non-comparative-evidence"]}, "name": "NCT03640312_BaselineMeasure_2_BG002", "title": "Race/Ethnicity, Customized for Total at baseline in NCT03640312", "status": "active", "statistic": [{"category": {"text": "Race/Ethnicity:: Hispanic"}, "quantity": {"unit": "Participants", "value": 45}, "sampleSize": {"knownDataCount": 62}, "statisticType": {"text": "Count of Participants", "coding": [{"code": "STATO:0000047", "system": "https://fevir.net/sevco", "display": "count"}]}}, {"category": {"text": "Race/Ethnicity:: Black/Sub Saharan African"}, "quantity": {"unit": "Participants", "value": 11}, "sampleSize": {"knownDataCount": 62}, "statisticType": {"text": "Count of Participants", "coding": [{"code": "STATO:0000047", "system": "https://fevir.net/sevco", "display": "count"}]}}, {"category": {"text": "Race/Ethnicity:: White/Caucasian/Other"}, "quantity": {"unit": "Participants", "value": 6}, "sampleSize": {"knownDataCount": 62}, "statisticType": {"text": "Count of Participants", "coding": [{"code": "STATO:0000047", "system": "https://fevir.net/sevco", "display": "count"}]}}], "resourceType": "Evidence", "variableDefinition": [{"observed": {"type": "Group", "display": "Total", "reference": "#BG002"}, "variableRole": "population"}, {"observed": {"type": "EvidenceVariable", "display": "Race/Ethnicity, Customized", "reference": "#NCT03640312-BaselineMeasure-2"}, "variableRole": "outcome"}]}, {"id": "NCT03640312-BaselineMeasure-3-BG000", "meta": {"profile": ["http://hl7.org/fhir/uv/ebm/StructureDefinition/non-comparative-evidence"]}, "name": "NCT03640312_BaselineMeasure_3_BG000", "title": "Body Mass Index, kg/m^2 for QUARTET LDQT at baseline in NCT03640312", "status": "active", "statistic": [{"quantity": {"unit": "kg/m^2", "value": 33}, "sampleSize": {"knownDataCount": 32}, "statisticType": {"coding": [{"code": "STATO:0000573", "system": "https://fevir.net/sevco", "display": "mean"}]}, "attributeEstimate": [{"type": {"text": "Standard Deviation"}, "quantity": {"unit": "kg/m^2", "value": 6.9}}]}], "resourceType": "Evidence", "variableDefinition": [{"observed": {"type": "Group", "display": "QUARTET LDQT", "reference": "#BG000"}, "variableRole": "population"}, {"observed": {"type": "EvidenceVariable", "display": "Body Mass Index, kg/m^2", "reference": "#NCT03640312-BaselineMeasure-3"}, "variableRole": "outcome"}]}, {"id": "NCT03640312-BaselineMeasure-3-BG001", "meta": {"profile": ["http://hl7.org/fhir/uv/ebm/StructureDefinition/non-comparative-evidence"]}, "name": "NCT03640312_BaselineMeasure_3_BG001", "title": "Body Mass Index, kg/m^2 for Candesartan at baseline in NCT03640312", "status": "active", "statistic": [{"quantity": {"unit": "kg/m^2", "value": 34}, "sampleSize": {"knownDataCount": 30}, "statisticType": {"coding": [{"code": "STATO:0000573", "system": "https://fevir.net/sevco", "display": "mean"}]}, "attributeEstimate": [{"type": {"text": "Standard Deviation"}, "quantity": {"unit": "kg/m^2", "value": 7.9}}]}], "resourceType": "Evidence", "variableDefinition": [{"observed": {"type": "Group", "display": "Candesartan", "reference": "#BG001"}, "variableRole": "population"}, {"observed": {"type": "EvidenceVariable", "display": "Body Mass Index, kg/m^2", "reference": "#NCT03640312-BaselineMeasure-3"}, "variableRole": "outcome"}]}, {"id": "NCT03640312-BaselineMeasure-3-BG002", "meta": {"profile": ["http://hl7.org/fhir/uv/ebm/StructureDefinition/non-comparative-evidence"]}, "name": "NCT03640312_BaselineMeasure_3_BG002", "title": "Body Mass Index, kg/m^2 for Total at baseline in NCT03640312", "status": "active", "statistic": [{"quantity": {"unit": "kg/m^2", "value": 34}, "sampleSize": {"knownDataCount": 62}, "statisticType": {"coding": [{"code": "STATO:0000573", "system": "https://fevir.net/sevco", "display": "mean"}]}, "attributeEstimate": [{"type": {"text": "Standard Deviation"}, "quantity": {"unit": "kg/m^2", "value": 7.3}}]}], "resourceType": "Evidence", "variableDefinition": [{"observed": {"type": "Group", "display": "Total", "reference": "#BG002"}, "variableRole": "population"}, {"observed": {"type": "EvidenceVariable", "display": "Body Mass Index, kg/m^2", "reference": "#NCT03640312-BaselineMeasure-3"}, "variableRole": "outcome"}]}, {"id": "NCT03640312-BaselineMeasure-4-BG000", "meta": {"profile": ["http://hl7.org/fhir/uv/ebm/StructureDefinition/non-comparative-evidence"]}, "name": "NCT03640312_BaselineMeasure_4_BG000", "title": "Heart rate, beats per minute for QUARTET LDQT at baseline in NCT03640312", "status": "active", "statistic": [{"quantity": {"unit": "beats per minute", "value": 71.5}, "sampleSize": {"knownDataCount": 32}, "statisticType": {"coding": [{"code": "STATO:0000573", "system": "https://fevir.net/sevco", "display": "mean"}]}, "attributeEstimate": [{"type": {"text": "Standard Deviation"}, "quantity": {"unit": "beats per minute", "value": 10}}]}], "resourceType": "Evidence", "variableDefinition": [{"observed": {"type": "Group", "display": "QUARTET LDQT", "reference": "#BG000"}, "variableRole": "population"}, {"observed": {"type": "EvidenceVariable", "display": "Heart rate, beats per minute", "reference": "#NCT03640312-BaselineMeasure-4"}, "variableRole": "outcome"}]}, {"id": "NCT03640312-BaselineMeasure-4-BG001", "meta": {"profile": ["http://hl7.org/fhir/uv/ebm/StructureDefinition/non-comparative-evidence"]}, "name": "NCT03640312_BaselineMeasure_4_BG001", "title": "Heart rate, beats per minute for Candesartan at baseline in NCT03640312", "status": "active", "statistic": [{"quantity": {"unit": "beats per minute", "value": 71.7}, "sampleSize": {"knownDataCount": 30}, "statisticType": {"coding": [{"code": "STATO:0000573", "system": "https://fevir.net/sevco", "display": "mean"}]}, "attributeEstimate": [{"type": {"text": "Standard Deviation"}, "quantity": {"unit": "beats per minute", "value": 11.7}}]}], "resourceType": "Evidence", "variableDefinition": [{"observed": {"type": "Group", "display": "Candesartan", "reference": "#BG001"}, "variableRole": "population"}, {"observed": {"type": "EvidenceVariable", "display": "Heart rate, beats per minute", "reference": "#NCT03640312-BaselineMeasure-4"}, "variableRole": "outcome"}]}, {"id": "NCT03640312-BaselineMeasure-4-BG002", "meta": {"profile": ["http://hl7.org/fhir/uv/ebm/StructureDefinition/non-comparative-evidence"]}, "name": "NCT03640312_BaselineMeasure_4_BG002", "title": "Heart rate, beats per minute for Total at baseline in NCT03640312", "status": "active", "statistic": [{"quantity": {"unit": "beats per minute", "value": 71.6}, "sampleSize": {"knownDataCount": 62}, "statisticType": {"coding": [{"code": "STATO:0000573", "system": "https://fevir.net/sevco", "display": "mean"}]}, "attributeEstimate": [{"type": {"text": "Standard Deviation"}, "quantity": {"unit": "beats per minute", "value": 10.8}}]}], "resourceType": "Evidence", "variableDefinition": [{"observed": {"type": "Group", "display": "Total", "reference": "#BG002"}, "variableRole": "population"}, {"observed": {"type": "EvidenceVariable", "display": "Heart rate, beats per minute", "reference": "#NCT03640312-BaselineMeasure-4"}, "variableRole": "outcome"}]}, {"id": "NCT03640312-BaselineMeasure-5-BG000", "meta": {"profile": ["http://hl7.org/fhir/uv/ebm/StructureDefinition/non-comparative-evidence"]}, "name": "NCT03640312_BaselineMeasure_5_BG000", "title": "History of diabetes, n (%) for QUARTET LDQT at baseline in NCT03640312", "status": "active", "statistic": [{"quantity": {"unit": "Participants", "value": 10}, "sampleSize": {"knownDataCount": 32}, "statisticType": {"text": "Count of Participants", "coding": [{"code": "STATO:0000047", "system": "https://fevir.net/sevco", "display": "count"}]}}], "resourceType": "Evidence", "variableDefinition": [{"observed": {"type": "Group", "display": "QUARTET LDQT", "reference": "#BG000"}, "variableRole": "population"}, {"observed": {"type": "EvidenceVariable", "display": "History of diabetes, n (%)", "reference": "#NCT03640312-BaselineMeasure-5"}, "variableRole": "outcome"}]}, {"id": "NCT03640312-BaselineMeasure-5-BG001", "meta": {"profile": ["http://hl7.org/fhir/uv/ebm/StructureDefinition/non-comparative-evidence"]}, "name": "NCT03640312_BaselineMeasure_5_BG001", "title": "History of diabetes, n (%) for Candesartan at baseline in NCT03640312", "status": "active", "statistic": [{"quantity": {"unit": "Participants", "value": 7}, "sampleSize": {"knownDataCount": 30}, "statisticType": {"text": "Count of Participants", "coding": [{"code": "STATO:0000047", "system": "https://fevir.net/sevco", "display": "count"}]}}], "resourceType": "Evidence", "variableDefinition": [{"observed": {"type": "Group", "display": "Candesartan", "reference": "#BG001"}, "variableRole": "population"}, {"observed": {"type": "EvidenceVariable", "display": "History of diabetes, n (%)", "reference": "#NCT03640312-BaselineMeasure-5"}, "variableRole": "outcome"}]}, {"id": "NCT03640312-BaselineMeasure-5-BG002", "meta": {"profile": ["http://hl7.org/fhir/uv/ebm/StructureDefinition/non-comparative-evidence"]}, "name": "NCT03640312_BaselineMeasure_5_BG002", "title": "History of diabetes, n (%) for Total at baseline in NCT03640312", "status": "active", "statistic": [{"quantity": {"unit": "Participants", "value": 17}, "sampleSize": {"knownDataCount": 62}, "statisticType": {"text": "Count of Participants", "coding": [{"code": "STATO:0000047", "system": "https://fevir.net/sevco", "display": "count"}]}}], "resourceType": "Evidence", "variableDefinition": [{"observed": {"type": "Group", "display": "Total", "reference": "#BG002"}, "variableRole": "population"}, {"observed": {"type": "EvidenceVariable", "display": "History of diabetes, n (%)", "reference": "#NCT03640312-BaselineMeasure-5"}, "variableRole": "outcome"}]}, {"id": "NCT03640312-BaselineMeasure-6-BG000", "meta": {"profile": ["http://hl7.org/fhir/uv/ebm/StructureDefinition/non-comparative-evidence"]}, "name": "NCT03640312_BaselineMeasure_6_BG000", "title": "History of smoking, n (%) for QUARTET LDQT at baseline in NCT03640312", "status": "active", "statistic": [{"quantity": {"unit": "Participants", "value": 11}, "sampleSize": {"knownDataCount": 32}, "statisticType": {"text": "Count of Participants", "coding": [{"code": "STATO:0000047", "system": "https://fevir.net/sevco", "display": "count"}]}}], "resourceType": "Evidence", "variableDefinition": [{"observed": {"type": "Group", "display": "QUARTET LDQT", "reference": "#BG000"}, "variableRole": "population"}, {"observed": {"type": "EvidenceVariable", "display": "History of smoking, n (%)", "reference": "#NCT03640312-BaselineMeasure-6"}, "variableRole": "outcome"}]}, {"id": "NCT03640312-BaselineMeasure-6-BG001", "meta": {"profile": ["http://hl7.org/fhir/uv/ebm/StructureDefinition/non-comparative-evidence"]}, "name": "NCT03640312_BaselineMeasure_6_BG001", "title": "History of smoking, n (%) for Candesartan at baseline in NCT03640312", "status": "active", "statistic": [{"quantity": {"unit": "Participants", "value": 9}, "sampleSize": {"knownDataCount": 30}, "statisticType": {"text": "Count of Participants", "coding": [{"code": "STATO:0000047", "system": "https://fevir.net/sevco", "display": "count"}]}}], "resourceType": "Evidence", "variableDefinition": [{"observed": {"type": "Group", "display": "Candesartan", "reference": "#BG001"}, "variableRole": "population"}, {"observed": {"type": "EvidenceVariable", "display": "History of smoking, n (%)", "reference": "#NCT03640312-BaselineMeasure-6"}, "variableRole": "outcome"}]}, {"id": "NCT03640312-BaselineMeasure-6-BG002", "meta": {"profile": ["http://hl7.org/fhir/uv/ebm/StructureDefinition/non-comparative-evidence"]}, "name": "NCT03640312_BaselineMeasure_6_BG002", "title": "History of smoking, n (%) for Total at baseline in NCT03640312", "status": "active", "statistic": [{"quantity": {"unit": "Participants", "value": 20}, "sampleSize": {"knownDataCount": 62}, "statisticType": {"text": "Count of Participants", "coding": [{"code": "STATO:0000047", "system": "https://fevir.net/sevco", "display": "count"}]}}], "resourceType": "Evidence", "variableDefinition": [{"observed": {"type": "Group", "display": "Total", "reference": "#BG002"}, "variableRole": "population"}, {"observed": {"type": "EvidenceVariable", "display": "History of smoking, n (%)", "reference": "#NCT03640312-BaselineMeasure-6"}, "variableRole": "outcome"}]}, {"id": "NCT03640312-BaselineMeasure-7-BG000", "meta": {"profile": ["http://hl7.org/fhir/uv/ebm/StructureDefinition/non-comparative-evidence"]}, "name": "NCT03640312_BaselineMeasure_7_BG000", "title": "History of depression, n (%) for QUARTET LDQT at baseline in NCT03640312", "status": "active", "statistic": [{"quantity": {"unit": "Participants", "value": 7}, "sampleSize": {"knownDataCount": 32}, "statisticType": {"text": "Count of Participants", "coding": [{"code": "STATO:0000047", "system": "https://fevir.net/sevco", "display": "count"}]}}], "resourceType": "Evidence", "variableDefinition": [{"observed": {"type": "Group", "display": "QUARTET LDQT", "reference": "#BG000"}, "variableRole": "population"}, {"observed": {"type": "EvidenceVariable", "display": "History of depression, n (%)", "reference": "#NCT03640312-BaselineMeasure-7"}, "variableRole": "outcome"}]}, {"id": "NCT03640312-BaselineMeasure-7-BG001", "meta": {"profile": ["http://hl7.org/fhir/uv/ebm/StructureDefinition/non-comparative-evidence"]}, "name": "NCT03640312_BaselineMeasure_7_BG001", "title": "History of depression, n (%) for Candesartan at baseline in NCT03640312", "status": "active", "statistic": [{"quantity": {"unit": "Participants", "value": 9}, "sampleSize": {"knownDataCount": 30}, "statisticType": {"text": "Count of Participants", "coding": [{"code": "STATO:0000047", "system": "https://fevir.net/sevco", "display": "count"}]}}], "resourceType": "Evidence", "variableDefinition": [{"observed": {"type": "Group", "display": "Candesartan", "reference": "#BG001"}, "variableRole": "population"}, {"observed": {"type": "EvidenceVariable", "display": "History of depression, n (%)", "reference": "#NCT03640312-BaselineMeasure-7"}, "variableRole": "outcome"}]}, {"id": "NCT03640312-BaselineMeasure-7-BG002", "meta": {"profile": ["http://hl7.org/fhir/uv/ebm/StructureDefinition/non-comparative-evidence"]}, "name": "NCT03640312_BaselineMeasure_7_BG002", "title": "History of depression, n (%) for Total at baseline in NCT03640312", "status": "active", "statistic": [{"quantity": {"unit": "Participants", "value": 16}, "sampleSize": {"knownDataCount": 62}, "statisticType": {"text": "Count of Participants", "coding": [{"code": "STATO:0000047", "system": "https://fevir.net/sevco", "display": "count"}]}}], "resourceType": "Evidence", "variableDefinition": [{"observed": {"type": "Group", "display": "Total", "reference": "#BG002"}, "variableRole": "population"}, {"observed": {"type": "EvidenceVariable", "display": "History of depression, n (%)", "reference": "#NCT03640312-BaselineMeasure-7"}, "variableRole": "outcome"}]}, {"id": "NCT03640312-BaselineMeasure-8-BG000", "meta": {"profile": ["http://hl7.org/fhir/uv/ebm/StructureDefinition/non-comparative-evidence"]}, "name": "NCT03640312_BaselineMeasure_8_BG000", "title": "Weekly alcohol use, n (%) for QUARTET LDQT at baseline in NCT03640312", "status": "active", "statistic": [{"quantity": {"unit": "Participants", "value": 10}, "sampleSize": {"knownDataCount": 32}, "statisticType": {"text": "Count of Participants", "coding": [{"code": "STATO:0000047", "system": "https://fevir.net/sevco", "display": "count"}]}}], "resourceType": "Evidence", "variableDefinition": [{"observed": {"type": "Group", "display": "QUARTET LDQT", "reference": "#BG000"}, "variableRole": "population"}, {"observed": {"type": "EvidenceVariable", "display": "Weekly alcohol use, n (%)", "reference": "#NCT03640312-BaselineMeasure-8"}, "variableRole": "outcome"}]}, {"id": "NCT03640312-BaselineMeasure-8-BG001", "meta": {"profile": ["http://hl7.org/fhir/uv/ebm/StructureDefinition/non-comparative-evidence"]}, "name": "NCT03640312_BaselineMeasure_8_BG001", "title": "Weekly alcohol use, n (%) for Candesartan at baseline in NCT03640312", "status": "active", "statistic": [{"quantity": {"unit": "Participants", "value": 9}, "sampleSize": {"knownDataCount": 30}, "statisticType": {"text": "Count of Participants", "coding": [{"code": "STATO:0000047", "system": "https://fevir.net/sevco", "display": "count"}]}}], "resourceType": "Evidence", "variableDefinition": [{"observed": {"type": "Group", "display": "Candesartan", "reference": "#BG001"}, "variableRole": "population"}, {"observed": {"type": "EvidenceVariable", "display": "Weekly alcohol use, n (%)", "reference": "#NCT03640312-BaselineMeasure-8"}, "variableRole": "outcome"}]}, {"id": "NCT03640312-BaselineMeasure-8-BG002", "meta": {"profile": ["http://hl7.org/fhir/uv/ebm/StructureDefinition/non-comparative-evidence"]}, "name": "NCT03640312_BaselineMeasure_8_BG002", "title": "Weekly alcohol use, n (%) for Total at baseline in NCT03640312", "status": "active", "statistic": [{"quantity": {"unit": "Participants", "value": 19}, "sampleSize": {"knownDataCount": 62}, "statisticType": {"text": "Count of Participants", "coding": [{"code": "STATO:0000047", "system": "https://fevir.net/sevco", "display": "count"}]}}], "resourceType": "Evidence", "variableDefinition": [{"observed": {"type": "Group", "display": "Total", "reference": "#BG002"}, "variableRole": "population"}, {"observed": {"type": "EvidenceVariable", "display": "Weekly alcohol use, n (%)", "reference": "#NCT03640312-BaselineMeasure-8"}, "variableRole": "outcome"}]}, {"id": "NCT03640312-BaselineMeasure-9-BG000", "meta": {"profile": ["http://hl7.org/fhir/uv/ebm/StructureDefinition/non-comparative-evidence"]}, "name": "NCT03640312_BaselineMeasure_9_BG000", "title": "Systolic Blood Pressure, mm Hg for QUARTET LDQT at baseline in NCT03640312", "status": "active", "statistic": [{"quantity": {"unit": "mm Hg", "value": 137.6}, "sampleSize": {"knownDataCount": 32}, "statisticType": {"coding": [{"code": "STATO:0000573", "system": "https://fevir.net/sevco", "display": "mean"}]}, "attributeEstimate": [{"type": {"text": "Standard Deviation"}, "quantity": {"unit": "mm Hg", "value": 11.8}}]}], "resourceType": "Evidence", "variableDefinition": [{"observed": {"type": "Group", "display": "QUARTET LDQT", "reference": "#BG000"}, "variableRole": "population"}, {"observed": {"type": "EvidenceVariable", "display": "Systolic Blood Pressure, mm Hg", "reference": "#NCT03640312-BaselineMeasure-9"}, "variableRole": "outcome"}]}, {"id": "NCT03640312-BaselineMeasure-9-BG001", "meta": {"profile": ["http://hl7.org/fhir/uv/ebm/StructureDefinition/non-comparative-evidence"]}, "name": "NCT03640312_BaselineMeasure_9_BG001", "title": "Systolic Blood Pressure, mm Hg for Candesartan at baseline in NCT03640312", "status": "active", "statistic": [{"quantity": {"unit": "mm Hg", "value": 138.7}, "sampleSize": {"knownDataCount": 30}, "statisticType": {"coding": [{"code": "STATO:0000573", "system": "https://fevir.net/sevco", "display": "mean"}]}, "attributeEstimate": [{"type": {"text": "Standard Deviation"}, "quantity": {"unit": "mm Hg", "value": 10.8}}]}], "resourceType": "Evidence", "variableDefinition": [{"observed": {"type": "Group", "display": "Candesartan", "reference": "#BG001"}, "variableRole": "population"}, {"observed": {"type": "EvidenceVariable", "display": "Systolic Blood Pressure, mm Hg", "reference": "#NCT03640312-BaselineMeasure-9"}, "variableRole": "outcome"}]}, {"id": "NCT03640312-BaselineMeasure-9-BG002", "meta": {"profile": ["http://hl7.org/fhir/uv/ebm/StructureDefinition/non-comparative-evidence"]}, "name": "NCT03640312_BaselineMeasure_9_BG002", "title": "Systolic Blood Pressure, mm Hg for Total at baseline in NCT03640312", "status": "active", "statistic": [{"quantity": {"unit": "mm Hg", "value": 138.1}, "sampleSize": {"knownDataCount": 62}, "statisticType": {"coding": [{"code": "STATO:0000573", "system": "https://fevir.net/sevco", "display": "mean"}]}, "attributeEstimate": [{"type": {"text": "Standard Deviation"}, "quantity": {"unit": "mm Hg", "value": 11.2}}]}], "resourceType": "Evidence", "variableDefinition": [{"observed": {"type": "Group", "display": "Total", "reference": "#BG002"}, "variableRole": "population"}, {"observed": {"type": "EvidenceVariable", "display": "Systolic Blood Pressure, mm Hg", "reference": "#NCT03640312-BaselineMeasure-9"}, "variableRole": "outcome"}]}, {"id": "NCT03640312-BaselineMeasure-10-BG000", "meta": {"profile": ["http://hl7.org/fhir/uv/ebm/StructureDefinition/non-comparative-evidence"]}, "name": "NCT03640312_BaselineMeasure_10_BG000", "title": "Diastolic Blood Pressure, mm Hg for QUARTET LDQT at baseline in NCT03640312", "status": "active", "statistic": [{"quantity": {"unit": "mm Hg", "value": 84.3}, "sampleSize": {"knownDataCount": 32}, "statisticType": {"coding": [{"code": "STATO:0000573", "system": "https://fevir.net/sevco", "display": "mean"}]}, "attributeEstimate": [{"type": {"text": "Standard Deviation"}, "quantity": {"unit": "mm Hg", "value": 9.6}}]}], "resourceType": "Evidence", "variableDefinition": [{"observed": {"type": "Group", "display": "QUARTET LDQT", "reference": "#BG000"}, "variableRole": "population"}, {"observed": {"type": "EvidenceVariable", "display": "Diastolic Blood Pressure, mm Hg", "reference": "#NCT03640312-BaselineMeasure-10"}, "variableRole": "outcome"}]}, {"id": "NCT03640312-BaselineMeasure-10-BG001", "meta": {"profile": ["http://hl7.org/fhir/uv/ebm/StructureDefinition/non-comparative-evidence"]}, "name": "NCT03640312_BaselineMeasure_10_BG001", "title": "Diastolic Blood Pressure, mm Hg for Candesartan at baseline in NCT03640312", "status": "active", "statistic": [{"quantity": {"unit": "mm Hg", "value": 84.3}, "sampleSize": {"knownDataCount": 30}, "statisticType": {"coding": [{"code": "STATO:0000573", "system": "https://fevir.net/sevco", "display": "mean"}]}, "attributeEstimate": [{"type": {"text": "Standard Deviation"}, "quantity": {"unit": "mm Hg", "value": 11.5}}]}], "resourceType": "Evidence", "variableDefinition": [{"observed": {"type": "Group", "display": "Candesartan", "reference": "#BG001"}, "variableRole": "population"}, {"observed": {"type": "EvidenceVariable", "display": "Diastolic Blood Pressure, mm Hg", "reference": "#NCT03640312-BaselineMeasure-10"}, "variableRole": "outcome"}]}, {"id": "NCT03640312-BaselineMeasure-10-BG002", "meta": {"profile": ["http://hl7.org/fhir/uv/ebm/StructureDefinition/non-comparative-evidence"]}, "name": "NCT03640312_BaselineMeasure_10_BG002", "title": "Diastolic Blood Pressure, mm Hg for Total at baseline in NCT03640312", "status": "active", "statistic": [{"quantity": {"unit": "mm Hg", "value": 84.3}, "sampleSize": {"knownDataCount": 62}, "statisticType": {"coding": [{"code": "STATO:0000573", "system": "https://fevir.net/sevco", "display": "mean"}]}, "attributeEstimate": [{"type": {"text": "Standard Deviation"}, "quantity": {"unit": "mm Hg", "value": 10.5}}]}], "resourceType": "Evidence", "variableDefinition": [{"observed": {"type": "Group", "display": "Total", "reference": "#BG002"}, "variableRole": "population"}, {"observed": {"type": "EvidenceVariable", "display": "Diastolic Blood Pressure, mm Hg", "reference": "#NCT03640312-BaselineMeasure-10"}, "variableRole": "outcome"}]}], "custodian": {"type": "Organization", "display": "Computable Publishing LLC", "reference": "Organization/118079"}, "extension": [{"url": "http://hl7.org/fhir/StructureDefinition/artifact-description", "valueMarkdown": "Example for EBMonFHIR IG"}, {"url": "http://hl7.org/fhir/uv/ebm/StructureDefinition/artifact-publication-status", "valueCodeableConcept": {"coding": [{"code": "active", "system": "http://terminology.hl7.org/CodeSystem/cited-artifact-status-type", "display": "Active"}]}}], "relatesTo": [{"type": "cite-as", "targetMarkdown": "Baseline Characteristics Report for QUARTET Trial [Database Entry: FHIR Composition Resource]. Contributors: Joanne Dehnbostel [Authors/Creators]. In: Fast Evidence Interoperability Resources (FEvIR) Platform, FOI 370510. Revised 2025-10-11. Available at: https://fevir.net/resources/Composition/370510. Computable resource at: https://fevir.net/resources/Composition/370510#json."}, {"type": "derived-from", "targetReference": {"type": "Composition", "display": "Baseline Characteristics Report for NCT03640312", "reference": "Composition/370503"}}], "identifier": [{"type": {"text": "FEvIR Object Identifier", "coding": [{"code": "ACSN", "system": "http://terminology.hl7.org/CodeSystem/v2-0203", "display": "Accession ID"}]}, "value": "370510", "system": "https://fevir.net/FOI", "assigner": {"display": "Computable Publishing LLC"}}, {"type": {"text": "FEvIR Linking Identifier"}, "value": "NCT03640312-baseline-measure-report", "system": "https://fevir.net/FLI", "assigner": {"display": "Computable Publishing LLC"}}], "resourceType": "Composition", "section": [{"code": {"coding": [{"code": "results", "system": "https://fevir.net/resources/CodeSystem/179423", "display": "Results"}]}, "text": {"div": "<div xmlns=\"http://www.w3.org/1999/xhtml\"><p>[No data.]</p></div>", "status": "empty"}, "entry": [{"type": "Evidence", "display": "Age, Continuous for QUARTET LDQT at baseline in NCT03640312", "reference": "#NCT03640312-BaselineMeasure-0-BG000"}, {"type": "Evidence", "display": "Age, Continuous for Candesartan at baseline in NCT03640312", "reference": "#NCT03640312-BaselineMeasure-0-BG001"}, {"type": "Evidence", "display": "Age, Continuous for Total at baseline in NCT03640312", "reference": "#NCT03640312-BaselineMeasure-0-BG002"}, {"type": "Evidence", "display": "Age, Continuous for Total at baseline in NCT03640312", "reference": "#NCT03640312-BaselineMeasure-0-BG002"}], "focus": {"type": "EvidenceVariable", "display": "Age, Continuous", "reference": "#NCT03640312-BaselineMeasure-0"}, "title": "Age, Continuous"}, {"code": {"coding": [{"code": "results", "system": "https://fevir.net/resources/CodeSystem/179423", "display": "Results"}]}, "text": {"div": "<div xmlns=\"http://www.w3.org/1999/xhtml\"><p>[No data.]</p></div>", "status": "empty"}, "entry": [{"type": "Evidence", "display": "Sex: Female, Male for QUARTET LDQT at baseline in NCT03640312", "reference": "#NCT03640312-BaselineMeasure-1-BG000"}, {"type": "Evidence", "display": "Sex: Female, Male for Candesartan at baseline in NCT03640312", "reference": "#NCT03640312-BaselineMeasure-1-BG001"}, {"type": "Evidence", "display": "Sex: Female, Male for Total at baseline in NCT03640312", "reference": "#NCT03640312-BaselineMeasure-1-BG002"}, {"type": "Evidence", "display": "Sex: Female, Male for Total at baseline in NCT03640312", "reference": "#NCT03640312-BaselineMeasure-1-BG002"}], "focus": {"type": "EvidenceVariable", "display": "Sex: Female, Male", "reference": "#NCT03640312-BaselineMeasure-1"}, "title": "Sex: Female, Male"}, {"code": {"coding": [{"code": "results", "system": "https://fevir.net/resources/CodeSystem/179423", "display": "Results"}]}, "text": {"div": "<div xmlns=\"http://www.w3.org/1999/xhtml\"><p>[No data.]</p></div>", "status": "empty"}, "entry": [{"type": "Evidence", "display": "Race/Ethnicity, Customized for QUARTET LDQT at baseline in NCT03640312", "reference": "#NCT03640312-BaselineMeasure-2-BG000"}, {"type": "Evidence", "display": "Race/Ethnicity, Customized for Candesartan at baseline in NCT03640312", "reference": "#NCT03640312-BaselineMeasure-2-BG001"}, {"type": "Evidence", "display": "Race/Ethnicity, Customized for Total at baseline in NCT03640312", "reference": "#NCT03640312-BaselineMeasure-2-BG002"}, {"type": "Evidence", "display": "Race/Ethnicity, Customized for Total at baseline in NCT03640312", "reference": "#NCT03640312-BaselineMeasure-2-BG002"}], "focus": {"type": "EvidenceVariable", "display": "Race/Ethnicity, Customized", "reference": "#NCT03640312-BaselineMeasure-2"}, "title": "Race/Ethnicity, Customized"}, {"code": {"coding": [{"code": "results", "system": "https://fevir.net/resources/CodeSystem/179423", "display": "Results"}]}, "text": {"div": "<div xmlns=\"http://www.w3.org/1999/xhtml\"><p>[No data.]</p></div>", "status": "empty"}, "entry": [{"type": "Evidence", "display": "Body Mass Index, kg/m^2 for QUARTET LDQT at baseline in NCT03640312", "reference": "#NCT03640312-BaselineMeasure-3-BG000"}, {"type": "Evidence", "display": "Body Mass Index, kg/m^2 for Candesartan at baseline in NCT03640312", "reference": "#NCT03640312-BaselineMeasure-3-BG001"}, {"type": "Evidence", "display": "Body Mass Index, kg/m^2 for Total at baseline in NCT03640312", "reference": "#NCT03640312-BaselineMeasure-3-BG002"}, {"type": "Evidence", "display": "Body Mass Index, kg/m^2 for Total at baseline in NCT03640312", "reference": "#NCT03640312-BaselineMeasure-3-BG002"}], "focus": {"type": "EvidenceVariable", "display": "Body Mass Index, kg/m^2", "reference": "#NCT03640312-BaselineMeasure-3"}, "title": "Body Mass Index, kg/m^2"}, {"code": {"coding": [{"code": "results", "system": "https://fevir.net/resources/CodeSystem/179423", "display": "Results"}]}, "text": {"div": "<div xmlns=\"http://www.w3.org/1999/xhtml\"><p>[No data.]</p></div>", "status": "empty"}, "entry": [{"type": "Evidence", "display": "Heart rate, beats per minute for QUARTET LDQT at baseline in NCT03640312", "reference": "#NCT03640312-BaselineMeasure-4-BG000"}, {"type": "Evidence", "display": "Heart rate, beats per minute for Candesartan at baseline in NCT03640312", "reference": "#NCT03640312-BaselineMeasure-4-BG001"}, {"type": "Evidence", "display": "Heart rate, beats per minute for Total at baseline in NCT03640312", "reference": "#NCT03640312-BaselineMeasure-4-BG002"}, {"type": "Evidence", "display": "Heart rate, beats per minute for Total at baseline in NCT03640312", "reference": "#NCT03640312-BaselineMeasure-4-BG002"}], "focus": {"type": "EvidenceVariable", "display": "Heart rate, beats per minute", "reference": "#NCT03640312-BaselineMeasure-4"}, "title": "Heart rate, beats per minute"}, {"code": {"coding": [{"code": "results", "system": "https://fevir.net/resources/CodeSystem/179423", "display": "Results"}]}, "text": {"div": "<div xmlns=\"http://www.w3.org/1999/xhtml\"><p>[No data.]</p></div>", "status": "empty"}, "entry": [{"type": "Evidence", "display": "History of diabetes, n (%) for QUARTET LDQT at baseline in NCT03640312", "reference": "#NCT03640312-BaselineMeasure-5-BG000"}, {"type": "Evidence", "display": "History of diabetes, n (%) for Candesartan at baseline in NCT03640312", "reference": "#NCT03640312-BaselineMeasure-5-BG001"}, {"type": "Evidence", "display": "History of diabetes, n (%) for Total at baseline in NCT03640312", "reference": "#NCT03640312-BaselineMeasure-5-BG002"}, {"type": "Evidence", "display": "History of diabetes, n (%) for Total at baseline in NCT03640312", "reference": "#NCT03640312-BaselineMeasure-5-BG002"}], "focus": {"type": "EvidenceVariable", "display": "History of diabetes, n (%)", "reference": "#NCT03640312-BaselineMeasure-5"}, "title": "History of diabetes, n (%)"}, {"code": {"coding": [{"code": "results", "system": "https://fevir.net/resources/CodeSystem/179423", "display": "Results"}]}, "text": {"div": "<div xmlns=\"http://www.w3.org/1999/xhtml\"><p>[No data.]</p></div>", "status": "empty"}, "entry": [{"type": "Evidence", "display": "History of smoking, n (%) for QUARTET LDQT at baseline in NCT03640312", "reference": "#NCT03640312-BaselineMeasure-6-BG000"}, {"type": "Evidence", "display": "History of smoking, n (%) for Candesartan at baseline in NCT03640312", "reference": "#NCT03640312-BaselineMeasure-6-BG001"}, {"type": "Evidence", "display": "History of smoking, n (%) for Total at baseline in NCT03640312", "reference": "#NCT03640312-BaselineMeasure-6-BG002"}, {"type": "Evidence", "display": "History of smoking, n (%) for Total at baseline in NCT03640312", "reference": "#NCT03640312-BaselineMeasure-6-BG002"}], "focus": {"type": "EvidenceVariable", "display": "History of smoking, n (%)", "reference": "#NCT03640312-BaselineMeasure-6"}, "title": "History of smoking, n (%)"}, {"code": {"coding": [{"code": "results", "system": "https://fevir.net/resources/CodeSystem/179423", "display": "Results"}]}, "text": {"div": "<div xmlns=\"http://www.w3.org/1999/xhtml\"><p>[No data.]</p></div>", "status": "empty"}, "entry": [{"type": "Evidence", "display": "History of depression, n (%) for QUARTET LDQT at baseline in NCT03640312", "reference": "#NCT03640312-BaselineMeasure-7-BG000"}, {"type": "Evidence", "display": "History of depression, n (%) for Candesartan at baseline in NCT03640312", "reference": "#NCT03640312-BaselineMeasure-7-BG001"}, {"type": "Evidence", "display": "History of depression, n (%) for Total at baseline in NCT03640312", "reference": "#NCT03640312-BaselineMeasure-7-BG002"}, {"type": "Evidence", "display": "History of depression, n (%) for Total at baseline in NCT03640312", "reference": "#NCT03640312-BaselineMeasure-7-BG002"}], "focus": {"type": "EvidenceVariable", "display": "History of depression, n (%)", "reference": "#NCT03640312-BaselineMeasure-7"}, "title": "History of depression, n (%)"}, {"code": {"coding": [{"code": "results", "system": "https://fevir.net/resources/CodeSystem/179423", "display": "Results"}]}, "text": {"div": "<div xmlns=\"http://www.w3.org/1999/xhtml\"><p>[No data.]</p></div>", "status": "empty"}, "entry": [{"type": "Evidence", "display": "Weekly alcohol use, n (%) for QUARTET LDQT at baseline in NCT03640312", "reference": "#NCT03640312-BaselineMeasure-8-BG000"}, {"type": "Evidence", "display": "Weekly alcohol use, n (%) for Candesartan at baseline in NCT03640312", "reference": "#NCT03640312-BaselineMeasure-8-BG001"}, {"type": "Evidence", "display": "Weekly alcohol use, n (%) for Total at baseline in NCT03640312", "reference": "#NCT03640312-BaselineMeasure-8-BG002"}, {"type": "Evidence", "display": "Weekly alcohol use, n (%) for Total at baseline in NCT03640312", "reference": "#NCT03640312-BaselineMeasure-8-BG002"}], "focus": {"type": "EvidenceVariable", "display": "Weekly alcohol use, n (%)", "reference": "#NCT03640312-BaselineMeasure-8"}, "title": "Weekly alcohol use, n (%)"}, {"code": {"coding": [{"code": "results", "system": "https://fevir.net/resources/CodeSystem/179423", "display": "Results"}]}, "text": {"div": "<div xmlns=\"http://www.w3.org/1999/xhtml\"><p>[No data.]</p></div>", "status": "empty"}, "entry": [{"type": "Evidence", "display": "Systolic Blood Pressure, mm Hg for QUARTET LDQT at baseline in NCT03640312", "reference": "#NCT03640312-BaselineMeasure-9-BG000"}, {"type": "Evidence", "display": "Systolic Blood Pressure, mm Hg for Candesartan at baseline in NCT03640312", "reference": "#NCT03640312-BaselineMeasure-9-BG001"}, {"type": "Evidence", "display": "Systolic Blood Pressure, mm Hg for Total at baseline in NCT03640312", "reference": "#NCT03640312-BaselineMeasure-9-BG002"}, {"type": "Evidence", "display": "Systolic Blood Pressure, mm Hg for Total at baseline in NCT03640312", "reference": "#NCT03640312-BaselineMeasure-9-BG002"}], "focus": {"type": "EvidenceVariable", "display": "Systolic Blood Pressure, mm Hg", "reference": "#NCT03640312-BaselineMeasure-9"}, "title": "Systolic Blood Pressure, mm Hg"}, {"code": {"coding": [{"code": "results", "system": "https://fevir.net/resources/CodeSystem/179423", "display": "Results"}]}, "text": {"div": "<div xmlns=\"http://www.w3.org/1999/xhtml\"><p>[No data.]</p></div>", "status": "empty"}, "entry": [{"type": "Evidence", "display": "Diastolic Blood Pressure, mm Hg for QUARTET LDQT at baseline in NCT03640312", "reference": "#NCT03640312-BaselineMeasure-10-BG000"}, {"type": "Evidence", "display": "Diastolic Blood Pressure, mm Hg for Candesartan at baseline in NCT03640312", "reference": "#NCT03640312-BaselineMeasure-10-BG001"}, {"type": "Evidence", "display": "Diastolic Blood Pressure, mm Hg for Total at baseline in NCT03640312", "reference": "#NCT03640312-BaselineMeasure-10-BG002"}, {"type": "Evidence", "display": "Diastolic Blood Pressure, mm Hg for Total at baseline in NCT03640312", "reference": "#NCT03640312-BaselineMeasure-10-BG002"}], "focus": {"type": "EvidenceVariable", "display": "Diastolic Blood Pressure, mm Hg", "reference": "#NCT03640312-BaselineMeasure-10"}, "title": "Diastolic Blood Pressure, mm Hg"}]}