{"id": "370505", "url": "https://fevir.net/resources/Composition/370505", "date": "2025-08-18T13:22:42.074Z", "meta": {"profile": ["http://hl7.org/fhir/uv/ebm/StructureDefinition/outcome-measure-report"], "versionId": "25", "lastUpdated": "2025-08-18T13:22:42.074Z"}, "type": {"text": "Outcome Measure Report", "coding": [{"code": "OutcomeMeasureReport", "system": "https://fevir.net/resources/CodeSystem/179423", "display": "OutcomeMeasureReport"}]}, "title": "Adverse Events Report for NCT03640312", "author": [{"display": "[No author listed.]"}], "status": "final", "contained": [{"id": "NCT03640312-AllCauseMortality", "meta": {"profile": ["http://hl7.org/fhir/uv/ebm/StructureDefinition/variable-definition"]}, "title": "All-cause mortality (timeframe for NCT03640312)", "status": "active", "timing": {"text": "12 weeks"}, "handling": "boolean", "definition": {"concept": {"text": "All-cause mortality"}}, "resourceType": "EvidenceVariable"}, {"id": "NCT03640312-SeriousAdverseEvents", "meta": {"profile": ["http://hl7.org/fhir/uv/ebm/StructureDefinition/variable-definition"]}, "title": "Serious Adverse Events (timeframe for NCT03640312)", "status": "active", "timing": {"text": "12 weeks"}, "handling": "boolean", "definition": {"concept": {"text": "Serious Adverse Events"}}, "resourceType": "EvidenceVariable"}, {"id": "NCT03640312-OtherAdverseEvents", "meta": {"profile": ["http://hl7.org/fhir/uv/ebm/StructureDefinition/variable-definition"]}, "title": "Other Adverse Events (timeframe for NCT03640312)", "status": "active", "timing": {"text": "12 weeks"}, "handling": "boolean", "definition": {"concept": {"text": "Other Adverse Events"}}, "resourceType": "EvidenceVariable"}, {"id": "NCT03640312-AllCauseMortality-EG000", "meta": {"profile": ["http://hl7.org/fhir/uv/ebm/StructureDefinition/non-comparative-evidence"]}, "name": "NCT03640312_AllCauseMortality_EG000", "title": "All-cause mortality for QUARTET LDQT in NCT03640312", "status": "active", "statistic": [{"quantity": {"value": 0}, "sampleSize": {"knownDataCount": 32}, "statisticType": {"text": "Percentage"}, "numberAffected": 0}], "resourceType": "Evidence", "variableDefinition": [{"observed": {"display": "Patients randomized to the intervention arm will take a once daily ultra-low-dose quadruple combination therapy (QUARTET LDQT). The LDQT is an overencapsulated combination pill comprising four types of blood pressure lowering medications each at \u00bc standard doses. QUARTET includes candesartan 2mg, amlodipine besylate 1.25mg, indapamide 0.625mg, and bisoprolol 2.5mg. The individual components are currently approved and marketed within the United States.\n\nQUARTET LDQT: Ultra-low-dose combination therapy comprising four different blood pressure lowering drugs at 1/4 dosages. Taken once daily for 12 weeks."}, "description": "QUARTET LDQT", "variableRole": "population"}, {"note": [{"text": "Same as clinicaltrials.gov definition.\n\nA known side effects checklist (included in protocol and consent) was used as a dropdown list for site staff to populate as appropriate at each participant encounter. Any reported side effects from this list were documented as an AE. If an AE did not meet any of these pre-specified terms, the site staff would document 'other' and specify. At specified intervals, a blinded third party MedDRA coder would enter the MedDRA terms into the safety database."}], "observed": {"type": "EvidenceVariable", "reference": "#NCT03640312-AllCauseMortality"}, "variableRole": "outcome"}]}, {"id": "NCT03640312-SeriousAdverseEvents-EG000", "meta": {"profile": ["http://hl7.org/fhir/uv/ebm/StructureDefinition/non-comparative-evidence"]}, "name": "NCT03640312_SeriousAdverseEvents_EG000", "title": "Serious Adverse Events for QUARTET LDQT in NCT03640312", "status": "active", "statistic": [{"quantity": {"value": 0.0625}, "sampleSize": {"knownDataCount": 32}, "statisticType": {"text": "Percentage"}, "numberAffected": 2}], "resourceType": "Evidence", "variableDefinition": [{"observed": {"display": "Patients randomized to the intervention arm will take a once daily ultra-low-dose quadruple combination therapy (QUARTET LDQT). The LDQT is an overencapsulated combination pill comprising four types of blood pressure lowering medications each at \u00bc standard doses. QUARTET includes candesartan 2mg, amlodipine besylate 1.25mg, indapamide 0.625mg, and bisoprolol 2.5mg. The individual components are currently approved and marketed within the United States.\n\nQUARTET LDQT: Ultra-low-dose combination therapy comprising four different blood pressure lowering drugs at 1/4 dosages. Taken once daily for 12 weeks."}, "description": "QUARTET LDQT", "variableRole": "population"}, {"note": [{"text": "Same as clinicaltrials.gov definition.\n\nA known side effects checklist (included in protocol and consent) was used as a dropdown list for site staff to populate as appropriate at each participant encounter. Any reported side effects from this list were documented as an AE. If an AE did not meet any of these pre-specified terms, the site staff would document 'other' and specify. At specified intervals, a blinded third party MedDRA coder would enter the MedDRA terms into the safety database."}], "observed": {"type": "EvidenceVariable", "reference": "#NCT03640312-SeriousAdverseEvents"}, "variableRole": "outcome"}]}, {"id": "NCT03640312-OtherAdverseEvents-EG000", "meta": {"profile": ["http://hl7.org/fhir/uv/ebm/StructureDefinition/non-comparative-evidence"]}, "name": "NCT03640312_OtherAdverseEvents_EG000", "title": "Other Adverse Events for QUARTET LDQT in NCT03640312", "status": "active", "statistic": [{"quantity": {"value": 0.625}, "sampleSize": {"knownDataCount": 32}, "statisticType": {"text": "Percentage"}, "numberAffected": 20}], "resourceType": "Evidence", "variableDefinition": [{"observed": {"display": "Patients randomized to the intervention arm will take a once daily ultra-low-dose quadruple combination therapy (QUARTET LDQT). The LDQT is an overencapsulated combination pill comprising four types of blood pressure lowering medications each at \u00bc standard doses. QUARTET includes candesartan 2mg, amlodipine besylate 1.25mg, indapamide 0.625mg, and bisoprolol 2.5mg. The individual components are currently approved and marketed within the United States.\n\nQUARTET LDQT: Ultra-low-dose combination therapy comprising four different blood pressure lowering drugs at 1/4 dosages. Taken once daily for 12 weeks."}, "description": "QUARTET LDQT", "variableRole": "population"}, {"note": [{"text": "Same as clinicaltrials.gov definition.\n\nA known side effects checklist (included in protocol and consent) was used as a dropdown list for site staff to populate as appropriate at each participant encounter. Any reported side effects from this list were documented as an AE. If an AE did not meet any of these pre-specified terms, the site staff would document 'other' and specify. At specified intervals, a blinded third party MedDRA coder would enter the MedDRA terms into the safety database."}], "observed": {"type": "EvidenceVariable", "reference": "#NCT03640312-OtherAdverseEvents"}, "variableRole": "outcome"}]}, {"id": "NCT03640312-AllCauseMortality-EG001", "meta": {"profile": ["http://hl7.org/fhir/uv/ebm/StructureDefinition/non-comparative-evidence"]}, "name": "NCT03640312_AllCauseMortality_EG001", "title": "All-cause mortality for Candesartan in NCT03640312", "status": "active", "statistic": [{"quantity": {"value": 0}, "sampleSize": {"knownDataCount": 30}, "statisticType": {"text": "Percentage"}, "numberAffected": 0}], "resourceType": "Evidence", "variableDefinition": [{"observed": {"display": "Patients randomized to the comparison arm will take a once daily 8mg candesartan.\n\nCandesartan: Standard monotherapy of 8mg candesartan. Taken once daily for 12 weeks."}, "description": "Candesartan", "variableRole": "population"}, {"note": [{"text": "Same as clinicaltrials.gov definition.\n\nA known side effects checklist (included in protocol and consent) was used as a dropdown list for site staff to populate as appropriate at each participant encounter. Any reported side effects from this list were documented as an AE. If an AE did not meet any of these pre-specified terms, the site staff would document 'other' and specify. At specified intervals, a blinded third party MedDRA coder would enter the MedDRA terms into the safety database."}], "observed": {"type": "EvidenceVariable", "reference": "#NCT03640312-AllCauseMortality"}, "variableRole": "outcome"}]}, {"id": "NCT03640312-SeriousAdverseEvents-EG001", "meta": {"profile": ["http://hl7.org/fhir/uv/ebm/StructureDefinition/non-comparative-evidence"]}, "name": "NCT03640312_SeriousAdverseEvents_EG001", "title": "Serious Adverse Events for Candesartan in NCT03640312", "status": "active", "statistic": [{"quantity": {"value": 0}, "sampleSize": {"knownDataCount": 30}, "statisticType": {"text": "Percentage"}, "numberAffected": 0}], "resourceType": "Evidence", "variableDefinition": [{"observed": {"display": "Patients randomized to the comparison arm will take a once daily 8mg candesartan.\n\nCandesartan: Standard monotherapy of 8mg candesartan. Taken once daily for 12 weeks."}, "description": "Candesartan", "variableRole": "population"}, {"note": [{"text": "Same as clinicaltrials.gov definition.\n\nA known side effects checklist (included in protocol and consent) was used as a dropdown list for site staff to populate as appropriate at each participant encounter. Any reported side effects from this list were documented as an AE. If an AE did not meet any of these pre-specified terms, the site staff would document 'other' and specify. At specified intervals, a blinded third party MedDRA coder would enter the MedDRA terms into the safety database."}], "observed": {"type": "EvidenceVariable", "reference": "#NCT03640312-SeriousAdverseEvents"}, "variableRole": "outcome"}]}, {"id": "NCT03640312-OtherAdverseEvents-EG001", "meta": {"profile": ["http://hl7.org/fhir/uv/ebm/StructureDefinition/non-comparative-evidence"]}, "name": "NCT03640312_OtherAdverseEvents_EG001", "title": "Other Adverse Events for Candesartan in NCT03640312", "status": "active", "statistic": [{"quantity": {"value": 0.4666666666666667}, "sampleSize": {"knownDataCount": 30}, "statisticType": {"text": "Percentage"}, "numberAffected": 14}], "resourceType": "Evidence", "variableDefinition": [{"observed": {"display": "Patients randomized to the comparison arm will take a once daily 8mg candesartan.\n\nCandesartan: Standard monotherapy of 8mg candesartan. Taken once daily for 12 weeks."}, "description": "Candesartan", "variableRole": "population"}, {"note": [{"text": "Same as clinicaltrials.gov definition.\n\nA known side effects checklist (included in protocol and consent) was used as a dropdown list for site staff to populate as appropriate at each participant encounter. Any reported side effects from this list were documented as an AE. If an AE did not meet any of these pre-specified terms, the site staff would document 'other' and specify. At specified intervals, a blinded third party MedDRA coder would enter the MedDRA terms into the safety database."}], "observed": {"type": "EvidenceVariable", "reference": "#NCT03640312-OtherAdverseEvents"}, "variableRole": "outcome"}]}, {"id": "NCT03640312-SeriousAdverseEvent-0-EG000", "meta": {"profile": ["http://hl7.org/fhir/uv/ebm/StructureDefinition/non-comparative-evidence"]}, "name": "NCT03640312_SeriousAdverseEvent_0_EG000", "title": "Road Traffic Accident as serious adverse event for QUARTET LDQT in NCT03640312", "status": "active", "statistic": [{"quantity": {"value": 0.03125}, "sampleSize": {"knownDataCount": 32}, "statisticType": {"text": "Percentage"}, "numberAffected": 1, "numberOfEvents": 1}], "resourceType": "Evidence", "variableDefinition": [{"observed": {"display": "Patients randomized to the intervention arm will take a once daily ultra-low-dose quadruple combination therapy (QUARTET LDQT). The LDQT is an overencapsulated combination pill comprising four types of blood pressure lowering medications each at \u00bc standard doses. QUARTET includes candesartan 2mg, amlodipine besylate 1.25mg, indapamide 0.625mg, and bisoprolol 2.5mg. The individual components are currently approved and marketed within the United States.\n\nQUARTET LDQT: Ultra-low-dose combination therapy comprising four different blood pressure lowering drugs at 1/4 dosages. Taken once daily for 12 weeks."}, "description": "QUARTET LDQT", "variableRole": "population"}, {"note": [{"text": "Same as clinicaltrials.gov definition.\n\nA known side effects checklist (included in protocol and consent) was used as a dropdown list for site staff to populate as appropriate at each participant encounter. Any reported side effects from this list were documented as an AE. If an AE did not meet any of these pre-specified terms, the site staff would document 'other' and specify. At specified intervals, a blinded third party MedDRA coder would enter the MedDRA terms into the safety database."}], "observed": {"type": "EvidenceVariable", "reference": "#NCT03640312-SeriousAdverseEvent-0"}, "variableRole": "outcome"}]}, {"id": "NCT03640312-SeriousAdverseEvent-0-EG001", "meta": {"profile": ["http://hl7.org/fhir/uv/ebm/StructureDefinition/non-comparative-evidence"]}, "name": "NCT03640312_SeriousAdverseEvent_0_EG001", "title": "Road Traffic Accident as serious adverse event for Candesartan in NCT03640312", "status": "active", "statistic": [{"sampleSize": {"knownDataCount": 30}}], "resourceType": "Evidence", "variableDefinition": [{"observed": {"display": "Patients randomized to the comparison arm will take a once daily 8mg candesartan.\n\nCandesartan: Standard monotherapy of 8mg candesartan. Taken once daily for 12 weeks."}, "description": "Candesartan", "variableRole": "population"}, {"note": [{"text": "Same as clinicaltrials.gov definition.\n\nA known side effects checklist (included in protocol and consent) was used as a dropdown list for site staff to populate as appropriate at each participant encounter. Any reported side effects from this list were documented as an AE. If an AE did not meet any of these pre-specified terms, the site staff would document 'other' and specify. At specified intervals, a blinded third party MedDRA coder would enter the MedDRA terms into the safety database."}], "observed": {"type": "EvidenceVariable", "reference": "#NCT03640312-SeriousAdverseEvent-0"}, "variableRole": "outcome"}]}, {"id": "NCT03640312-SeriousAdverseEvent-0", "meta": {"profile": ["http://hl7.org/fhir/uv/ebm/StructureDefinition/variable-definition"]}, "note": [{"text": "Motor Vehicle Accident. Severity: Severe. Outcome: Resolved with sequelae. Blinded relatedness assessment: Unrelated. Investigational product action taken: Temporarily Withdrawn. Resulted in hospitalization."}], "title": "Road Traffic Accident as serious adverse event", "status": "active", "timing": {"text": "12 weeks"}, "handling": "boolean", "classifier": [{"text": "Serious Adverse Event"}, {"text": "Injury, poisoning and procedural complications"}], "definition": {"concept": {"text": "Road Traffic Accident as serious adverse event"}}, "resourceType": "EvidenceVariable", "definitionModifier": [{"code": {"text": "Adverse event assessment type"}, "valueCodeableConcept": {"coding": [{"code": "systematic-assessment", "system": "http://hl7.org/fhir/definition-method", "display": "Systematic Assessment"}]}}, {"code": {"text": "Source Vocabulary for Adverse Event Definition"}, "valueCodeableConcept": {"text": "MedDRA 23.0"}}]}, {"id": "NCT03640312-SeriousAdverseEvent-1-EG000", "meta": {"profile": ["http://hl7.org/fhir/uv/ebm/StructureDefinition/non-comparative-evidence"]}, "name": "NCT03640312_SeriousAdverseEvent_1_EG000", "title": "Chest Pain as serious adverse event for QUARTET LDQT in NCT03640312", "status": "active", "statistic": [{"quantity": {"value": 0.03125}, "sampleSize": {"knownDataCount": 32}, "statisticType": {"text": "Percentage"}, "numberAffected": 1, "numberOfEvents": 1}], "resourceType": "Evidence", "variableDefinition": [{"observed": {"display": "Patients randomized to the intervention arm will take a once daily ultra-low-dose quadruple combination therapy (QUARTET LDQT). The LDQT is an overencapsulated combination pill comprising four types of blood pressure lowering medications each at \u00bc standard doses. QUARTET includes candesartan 2mg, amlodipine besylate 1.25mg, indapamide 0.625mg, and bisoprolol 2.5mg. The individual components are currently approved and marketed within the United States.\n\nQUARTET LDQT: Ultra-low-dose combination therapy comprising four different blood pressure lowering drugs at 1/4 dosages. Taken once daily for 12 weeks."}, "description": "QUARTET LDQT", "variableRole": "population"}, {"note": [{"text": "Same as clinicaltrials.gov definition.\n\nA known side effects checklist (included in protocol and consent) was used as a dropdown list for site staff to populate as appropriate at each participant encounter. Any reported side effects from this list were documented as an AE. If an AE did not meet any of these pre-specified terms, the site staff would document 'other' and specify. At specified intervals, a blinded third party MedDRA coder would enter the MedDRA terms into the safety database."}], "observed": {"type": "EvidenceVariable", "reference": "#NCT03640312-SeriousAdverseEvent-1"}, "variableRole": "outcome"}]}, {"id": "NCT03640312-SeriousAdverseEvent-1-EG001", "meta": {"profile": ["http://hl7.org/fhir/uv/ebm/StructureDefinition/non-comparative-evidence"]}, "name": "NCT03640312_SeriousAdverseEvent_1_EG001", "title": "Chest Pain as serious adverse event for Candesartan in NCT03640312", "status": "active", "statistic": [{"sampleSize": {"knownDataCount": 30}}], "resourceType": "Evidence", "variableDefinition": [{"observed": {"display": "Patients randomized to the comparison arm will take a once daily 8mg candesartan.\n\nCandesartan: Standard monotherapy of 8mg candesartan. Taken once daily for 12 weeks."}, "description": "Candesartan", "variableRole": "population"}, {"note": [{"text": "Same as clinicaltrials.gov definition.\n\nA known side effects checklist (included in protocol and consent) was used as a dropdown list for site staff to populate as appropriate at each participant encounter. Any reported side effects from this list were documented as an AE. If an AE did not meet any of these pre-specified terms, the site staff would document 'other' and specify. At specified intervals, a blinded third party MedDRA coder would enter the MedDRA terms into the safety database."}], "observed": {"type": "EvidenceVariable", "reference": "#NCT03640312-SeriousAdverseEvent-1"}, "variableRole": "outcome"}]}, {"id": "NCT03640312-SeriousAdverseEvent-1", "meta": {"profile": ["http://hl7.org/fhir/uv/ebm/StructureDefinition/variable-definition"]}, "note": [{"text": "Severity: Severe. Outcome: Resolved with Sequelae. Relatedness Assessment: Unrelated. Investigational Product action taken: Temporarily Withdrawn. Resulted in hospitalization."}], "title": "Chest Pain as serious adverse event", "status": "active", "timing": {"text": "12 weeks"}, "handling": "boolean", "classifier": [{"text": "Serious Adverse Event"}, {"text": "General disorders"}], "definition": {"concept": {"text": "Chest Pain as serious adverse event"}}, "resourceType": "EvidenceVariable", "definitionModifier": [{"code": {"text": "Adverse event assessment type"}, "valueCodeableConcept": {"coding": [{"code": "systematic-assessment", "system": "http://hl7.org/fhir/definition-method", "display": "Systematic Assessment"}]}}, {"code": {"text": "Source Vocabulary for Adverse Event Definition"}, "valueCodeableConcept": {"text": "MedDRA 23.0"}}]}, {"id": "NCT03640312-OtherAdverseEvent-0-EG000", "meta": {"profile": ["http://hl7.org/fhir/uv/ebm/StructureDefinition/non-comparative-evidence"]}, "name": "NCT03640312_OtherAdverseEvent_0_EG000", "title": "Vision blurred as other adverse event for QUARTET LDQT in NCT03640312", "status": "active", "statistic": [{"quantity": {"value": 0.03125}, "sampleSize": {"knownDataCount": 32}, "statisticType": {"text": "Percentage"}, "numberAffected": 1, "numberOfEvents": 1}], "resourceType": "Evidence", "variableDefinition": [{"observed": {"display": "Patients randomized to the intervention arm will take a once daily ultra-low-dose quadruple combination therapy (QUARTET LDQT). The LDQT is an overencapsulated combination pill comprising four types of blood pressure lowering medications each at \u00bc standard doses. QUARTET includes candesartan 2mg, amlodipine besylate 1.25mg, indapamide 0.625mg, and bisoprolol 2.5mg. The individual components are currently approved and marketed within the United States.\n\nQUARTET LDQT: Ultra-low-dose combination therapy comprising four different blood pressure lowering drugs at 1/4 dosages. Taken once daily for 12 weeks."}, "description": "QUARTET LDQT", "variableRole": "population"}, {"note": [{"text": "Same as clinicaltrials.gov definition.\n\nA known side effects checklist (included in protocol and consent) was used as a dropdown list for site staff to populate as appropriate at each participant encounter. Any reported side effects from this list were documented as an AE. If an AE did not meet any of these pre-specified terms, the site staff would document 'other' and specify. At specified intervals, a blinded third party MedDRA coder would enter the MedDRA terms into the safety database."}], "observed": {"type": "EvidenceVariable", "reference": "#NCT03640312-OtherAdverseEvent-0"}, "variableRole": "outcome"}]}, {"id": "NCT03640312-OtherAdverseEvent-0-EG001", "meta": {"profile": ["http://hl7.org/fhir/uv/ebm/StructureDefinition/non-comparative-evidence"]}, "name": "NCT03640312_OtherAdverseEvent_0_EG001", "title": "Vision blurred as other adverse event for Candesartan in NCT03640312", "status": "active", "statistic": [{"quantity": {"value": 0.03333333333333333}, "sampleSize": {"knownDataCount": 30}, "statisticType": {"text": "Percentage"}, "numberAffected": 1, "numberOfEvents": 1}], "resourceType": "Evidence", "variableDefinition": [{"observed": {"display": "Patients randomized to the comparison arm will take a once daily 8mg candesartan.\n\nCandesartan: Standard monotherapy of 8mg candesartan. Taken once daily for 12 weeks."}, "description": "Candesartan", "variableRole": "population"}, {"note": [{"text": "Same as clinicaltrials.gov definition.\n\nA known side effects checklist (included in protocol and consent) was used as a dropdown list for site staff to populate as appropriate at each participant encounter. Any reported side effects from this list were documented as an AE. If an AE did not meet any of these pre-specified terms, the site staff would document 'other' and specify. At specified intervals, a blinded third party MedDRA coder would enter the MedDRA terms into the safety database."}], "observed": {"type": "EvidenceVariable", "reference": "#NCT03640312-OtherAdverseEvent-0"}, "variableRole": "outcome"}]}, {"id": "NCT03640312-OtherAdverseEvent-0", "meta": {"profile": ["http://hl7.org/fhir/uv/ebm/StructureDefinition/variable-definition"]}, "note": [{"text": "2 Total events:\n\n1. Severity: Mild. Outcome: Ongoing at study exit. Relatedness assessment: Unrelated. Investigational product action taken: None. Study arm: Candesartan\n2. Severe, resolved without sequelae, unlikely related, no action taken, LDQT"}], "title": "Vision blurred as other adverse event", "status": "active", "timing": {"text": "12 weeks"}, "handling": "boolean", "classifier": [{"text": "Other Adverse Event"}, {"text": "Eye disorders"}], "definition": {"concept": {"text": "Vision blurred as other adverse event"}}, "resourceType": "EvidenceVariable", "definitionModifier": [{"code": {"text": "Adverse event assessment type"}, "valueCodeableConcept": {"coding": [{"code": "systematic-assessment", "system": "http://hl7.org/fhir/definition-method", "display": "Systematic Assessment"}]}}, {"code": {"text": "Source Vocabulary for Adverse Event Definition"}, "valueCodeableConcept": {"text": "MedDRA 23.0"}}]}, {"id": "NCT03640312-OtherAdverseEvent-1-EG000", "meta": {"profile": ["http://hl7.org/fhir/uv/ebm/StructureDefinition/non-comparative-evidence"]}, "name": "NCT03640312_OtherAdverseEvent_1_EG000", "title": "Palpitations as other adverse event for QUARTET LDQT in NCT03640312", "status": "active", "statistic": [{"quantity": {"value": 0}, "sampleSize": {"knownDataCount": 32}, "statisticType": {"text": "Percentage"}, "numberAffected": 0, "numberOfEvents": 0}], "resourceType": "Evidence", "variableDefinition": [{"observed": {"display": "Patients randomized to the intervention arm will take a once daily ultra-low-dose quadruple combination therapy (QUARTET LDQT). The LDQT is an overencapsulated combination pill comprising four types of blood pressure lowering medications each at \u00bc standard doses. QUARTET includes candesartan 2mg, amlodipine besylate 1.25mg, indapamide 0.625mg, and bisoprolol 2.5mg. The individual components are currently approved and marketed within the United States.\n\nQUARTET LDQT: Ultra-low-dose combination therapy comprising four different blood pressure lowering drugs at 1/4 dosages. Taken once daily for 12 weeks."}, "description": "QUARTET LDQT", "variableRole": "population"}, {"note": [{"text": "Same as clinicaltrials.gov definition.\n\nA known side effects checklist (included in protocol and consent) was used as a dropdown list for site staff to populate as appropriate at each participant encounter. Any reported side effects from this list were documented as an AE. If an AE did not meet any of these pre-specified terms, the site staff would document 'other' and specify. At specified intervals, a blinded third party MedDRA coder would enter the MedDRA terms into the safety database."}], "observed": {"type": "EvidenceVariable", "reference": "#NCT03640312-OtherAdverseEvent-1"}, "variableRole": "outcome"}]}, {"id": "NCT03640312-OtherAdverseEvent-1-EG001", "meta": {"profile": ["http://hl7.org/fhir/uv/ebm/StructureDefinition/non-comparative-evidence"]}, "name": "NCT03640312_OtherAdverseEvent_1_EG001", "title": "Palpitations as other adverse event for Candesartan in NCT03640312", "status": "active", "statistic": [{"quantity": {"value": 0.03333333333333333}, "sampleSize": {"knownDataCount": 30}, "statisticType": {"text": "Percentage"}, "numberAffected": 1, "numberOfEvents": 1}], "resourceType": "Evidence", "variableDefinition": [{"observed": {"display": "Patients randomized to the comparison arm will take a once daily 8mg candesartan.\n\nCandesartan: Standard monotherapy of 8mg candesartan. Taken once daily for 12 weeks."}, "description": "Candesartan", "variableRole": "population"}, {"note": [{"text": "Same as clinicaltrials.gov definition.\n\nA known side effects checklist (included in protocol and consent) was used as a dropdown list for site staff to populate as appropriate at each participant encounter. Any reported side effects from this list were documented as an AE. If an AE did not meet any of these pre-specified terms, the site staff would document 'other' and specify. At specified intervals, a blinded third party MedDRA coder would enter the MedDRA terms into the safety database."}], "observed": {"type": "EvidenceVariable", "reference": "#NCT03640312-OtherAdverseEvent-1"}, "variableRole": "outcome"}]}, {"id": "NCT03640312-OtherAdverseEvent-1", "meta": {"profile": ["http://hl7.org/fhir/uv/ebm/StructureDefinition/variable-definition"]}, "note": [{"text": "Palpitations, mild, resolved without sequelae, possible relatedness, no IP action taken."}], "title": "Palpitations as other adverse event", "status": "active", "timing": {"text": "12 weeks"}, "handling": "boolean", "classifier": [{"text": "Other Adverse Event"}, {"text": "Cardiac disorders"}], "definition": {"concept": {"text": "Palpitations as other adverse event"}}, "resourceType": "EvidenceVariable", "definitionModifier": [{"code": {"text": "Adverse event assessment type"}, "valueCodeableConcept": {"coding": [{"code": "systematic-assessment", "system": "http://hl7.org/fhir/definition-method", "display": "Systematic Assessment"}]}}, {"code": {"text": "Source Vocabulary for Adverse Event Definition"}, "valueCodeableConcept": {"text": "MedDRA 23.0"}}]}, {"id": "NCT03640312-OtherAdverseEvent-2-EG000", "meta": {"profile": ["http://hl7.org/fhir/uv/ebm/StructureDefinition/non-comparative-evidence"]}, "name": "NCT03640312_OtherAdverseEvent_2_EG000", "title": "Tinnitus as other adverse event for QUARTET LDQT in NCT03640312", "status": "active", "statistic": [{"quantity": {"value": 0.03125}, "sampleSize": {"knownDataCount": 32}, "statisticType": {"text": "Percentage"}, "numberAffected": 1, "numberOfEvents": 1}], "resourceType": "Evidence", "variableDefinition": [{"observed": {"display": "Patients randomized to the intervention arm will take a once daily ultra-low-dose quadruple combination therapy (QUARTET LDQT). The LDQT is an overencapsulated combination pill comprising four types of blood pressure lowering medications each at \u00bc standard doses. QUARTET includes candesartan 2mg, amlodipine besylate 1.25mg, indapamide 0.625mg, and bisoprolol 2.5mg. The individual components are currently approved and marketed within the United States.\n\nQUARTET LDQT: Ultra-low-dose combination therapy comprising four different blood pressure lowering drugs at 1/4 dosages. Taken once daily for 12 weeks."}, "description": "QUARTET LDQT", "variableRole": "population"}, {"note": [{"text": "Same as clinicaltrials.gov definition.\n\nA known side effects checklist (included in protocol and consent) was used as a dropdown list for site staff to populate as appropriate at each participant encounter. Any reported side effects from this list were documented as an AE. If an AE did not meet any of these pre-specified terms, the site staff would document 'other' and specify. At specified intervals, a blinded third party MedDRA coder would enter the MedDRA terms into the safety database."}], "observed": {"type": "EvidenceVariable", "reference": "#NCT03640312-OtherAdverseEvent-2"}, "variableRole": "outcome"}]}, {"id": "NCT03640312-OtherAdverseEvent-2-EG001", "meta": {"profile": ["http://hl7.org/fhir/uv/ebm/StructureDefinition/non-comparative-evidence"]}, "name": "NCT03640312_OtherAdverseEvent_2_EG001", "title": "Tinnitus as other adverse event for Candesartan in NCT03640312", "status": "active", "statistic": [{"quantity": {"value": 0}, "sampleSize": {"knownDataCount": 30}, "statisticType": {"text": "Percentage"}, "numberAffected": 0, "numberOfEvents": 0}], "resourceType": "Evidence", "variableDefinition": [{"observed": {"display": "Patients randomized to the comparison arm will take a once daily 8mg candesartan.\n\nCandesartan: Standard monotherapy of 8mg candesartan. Taken once daily for 12 weeks."}, "description": "Candesartan", "variableRole": "population"}, {"note": [{"text": "Same as clinicaltrials.gov definition.\n\nA known side effects checklist (included in protocol and consent) was used as a dropdown list for site staff to populate as appropriate at each participant encounter. Any reported side effects from this list were documented as an AE. If an AE did not meet any of these pre-specified terms, the site staff would document 'other' and specify. At specified intervals, a blinded third party MedDRA coder would enter the MedDRA terms into the safety database."}], "observed": {"type": "EvidenceVariable", "reference": "#NCT03640312-OtherAdverseEvent-2"}, "variableRole": "outcome"}]}, {"id": "NCT03640312-OtherAdverseEvent-2", "meta": {"profile": ["http://hl7.org/fhir/uv/ebm/StructureDefinition/variable-definition"]}, "note": [{"text": "Ringing in ears, mild, ongoing at study exit, assessed unrelated, no IP action taken."}], "title": "Tinnitus as other adverse event", "status": "active", "timing": {"text": "12 weeks"}, "handling": "boolean", "classifier": [{"text": "Other Adverse Event"}, {"text": "Ear and labyrinth disorders"}], "definition": {"concept": {"text": "Tinnitus as other adverse event"}}, "resourceType": "EvidenceVariable", "definitionModifier": [{"code": {"text": "Adverse event assessment type"}, "valueCodeableConcept": {"coding": [{"code": "systematic-assessment", "system": "http://hl7.org/fhir/definition-method", "display": "Systematic Assessment"}]}}, {"code": {"text": "Source Vocabulary for Adverse Event Definition"}, "valueCodeableConcept": {"text": "MedDRA 23.0"}}]}, {"id": "NCT03640312-OtherAdverseEvent-3-EG000", "meta": {"profile": ["http://hl7.org/fhir/uv/ebm/StructureDefinition/non-comparative-evidence"]}, "name": "NCT03640312_OtherAdverseEvent_3_EG000", "title": "Eye pruritis as other adverse event for QUARTET LDQT in NCT03640312", "status": "active", "statistic": [{"quantity": {"value": 0.03125}, "sampleSize": {"knownDataCount": 32}, "statisticType": {"text": "Percentage"}, "numberAffected": 1, "numberOfEvents": 1}], "resourceType": "Evidence", "variableDefinition": [{"observed": {"display": "Patients randomized to the intervention arm will take a once daily ultra-low-dose quadruple combination therapy (QUARTET LDQT). The LDQT is an overencapsulated combination pill comprising four types of blood pressure lowering medications each at \u00bc standard doses. QUARTET includes candesartan 2mg, amlodipine besylate 1.25mg, indapamide 0.625mg, and bisoprolol 2.5mg. The individual components are currently approved and marketed within the United States.\n\nQUARTET LDQT: Ultra-low-dose combination therapy comprising four different blood pressure lowering drugs at 1/4 dosages. Taken once daily for 12 weeks."}, "description": "QUARTET LDQT", "variableRole": "population"}, {"note": [{"text": "Same as clinicaltrials.gov definition.\n\nA known side effects checklist (included in protocol and consent) was used as a dropdown list for site staff to populate as appropriate at each participant encounter. Any reported side effects from this list were documented as an AE. If an AE did not meet any of these pre-specified terms, the site staff would document 'other' and specify. At specified intervals, a blinded third party MedDRA coder would enter the MedDRA terms into the safety database."}], "observed": {"type": "EvidenceVariable", "reference": "#NCT03640312-OtherAdverseEvent-3"}, "variableRole": "outcome"}]}, {"id": "NCT03640312-OtherAdverseEvent-3-EG001", "meta": {"profile": ["http://hl7.org/fhir/uv/ebm/StructureDefinition/non-comparative-evidence"]}, "name": "NCT03640312_OtherAdverseEvent_3_EG001", "title": "Eye pruritis as other adverse event for Candesartan in NCT03640312", "status": "active", "statistic": [{"quantity": {"value": 0}, "sampleSize": {"knownDataCount": 30}, "statisticType": {"text": "Percentage"}, "numberAffected": 0, "numberOfEvents": 0}], "resourceType": "Evidence", "variableDefinition": [{"observed": {"display": "Patients randomized to the comparison arm will take a once daily 8mg candesartan.\n\nCandesartan: Standard monotherapy of 8mg candesartan. Taken once daily for 12 weeks."}, "description": "Candesartan", "variableRole": "population"}, {"note": [{"text": "Same as clinicaltrials.gov definition.\n\nA known side effects checklist (included in protocol and consent) was used as a dropdown list for site staff to populate as appropriate at each participant encounter. Any reported side effects from this list were documented as an AE. If an AE did not meet any of these pre-specified terms, the site staff would document 'other' and specify. At specified intervals, a blinded third party MedDRA coder would enter the MedDRA terms into the safety database."}], "observed": {"type": "EvidenceVariable", "reference": "#NCT03640312-OtherAdverseEvent-3"}, "variableRole": "outcome"}]}, {"id": "NCT03640312-OtherAdverseEvent-3", "meta": {"profile": ["http://hl7.org/fhir/uv/ebm/StructureDefinition/variable-definition"]}, "note": [{"text": "Itchy eyes, mild, resolved without sequelae, unlikely relatedness, no IP action taken"}], "title": "Eye pruritis as other adverse event", "status": "active", "timing": {"text": "12 weeks"}, "handling": "boolean", "classifier": [{"text": "Other Adverse Event"}, {"text": "Eye disorders"}], "definition": {"concept": {"text": "Eye pruritis as other adverse event"}}, "resourceType": "EvidenceVariable", "definitionModifier": [{"code": {"text": "Adverse event assessment type"}, "valueCodeableConcept": {"coding": [{"code": "systematic-assessment", "system": "http://hl7.org/fhir/definition-method", "display": "Systematic Assessment"}]}}, {"code": {"text": "Source Vocabulary for Adverse Event Definition"}, "valueCodeableConcept": {"text": "MedDRA 23.0"}}]}, {"id": "NCT03640312-OtherAdverseEvent-4-EG000", "meta": {"profile": ["http://hl7.org/fhir/uv/ebm/StructureDefinition/non-comparative-evidence"]}, "name": "NCT03640312_OtherAdverseEvent_4_EG000", "title": "Diarrhea as other adverse event for QUARTET LDQT in NCT03640312", "status": "active", "statistic": [{"quantity": {"value": 0.09375}, "sampleSize": {"knownDataCount": 32}, "statisticType": {"text": "Percentage"}, "numberAffected": 3, "numberOfEvents": 3}], "resourceType": "Evidence", "variableDefinition": [{"observed": {"display": "Patients randomized to the intervention arm will take a once daily ultra-low-dose quadruple combination therapy (QUARTET LDQT). The LDQT is an overencapsulated combination pill comprising four types of blood pressure lowering medications each at \u00bc standard doses. QUARTET includes candesartan 2mg, amlodipine besylate 1.25mg, indapamide 0.625mg, and bisoprolol 2.5mg. The individual components are currently approved and marketed within the United States.\n\nQUARTET LDQT: Ultra-low-dose combination therapy comprising four different blood pressure lowering drugs at 1/4 dosages. Taken once daily for 12 weeks."}, "description": "QUARTET LDQT", "variableRole": "population"}, {"note": [{"text": "Same as clinicaltrials.gov definition.\n\nA known side effects checklist (included in protocol and consent) was used as a dropdown list for site staff to populate as appropriate at each participant encounter. Any reported side effects from this list were documented as an AE. If an AE did not meet any of these pre-specified terms, the site staff would document 'other' and specify. At specified intervals, a blinded third party MedDRA coder would enter the MedDRA terms into the safety database."}], "observed": {"type": "EvidenceVariable", "reference": "#NCT03640312-OtherAdverseEvent-4"}, "variableRole": "outcome"}]}, {"id": "NCT03640312-OtherAdverseEvent-4-EG001", "meta": {"profile": ["http://hl7.org/fhir/uv/ebm/StructureDefinition/non-comparative-evidence"]}, "name": "NCT03640312_OtherAdverseEvent_4_EG001", "title": "Diarrhea as other adverse event for Candesartan in NCT03640312", "status": "active", "statistic": [{"quantity": {"value": 0.06666666666666667}, "sampleSize": {"knownDataCount": 30}, "statisticType": {"text": "Percentage"}, "numberAffected": 2, "numberOfEvents": 2}], "resourceType": "Evidence", "variableDefinition": [{"observed": {"display": "Patients randomized to the comparison arm will take a once daily 8mg candesartan.\n\nCandesartan: Standard monotherapy of 8mg candesartan. Taken once daily for 12 weeks."}, "description": "Candesartan", "variableRole": "population"}, {"note": [{"text": "Same as clinicaltrials.gov definition.\n\nA known side effects checklist (included in protocol and consent) was used as a dropdown list for site staff to populate as appropriate at each participant encounter. Any reported side effects from this list were documented as an AE. If an AE did not meet any of these pre-specified terms, the site staff would document 'other' and specify. At specified intervals, a blinded third party MedDRA coder would enter the MedDRA terms into the safety database."}], "observed": {"type": "EvidenceVariable", "reference": "#NCT03640312-OtherAdverseEvent-4"}, "variableRole": "outcome"}]}, {"id": "NCT03640312-OtherAdverseEvent-4", "meta": {"profile": ["http://hl7.org/fhir/uv/ebm/StructureDefinition/variable-definition"]}, "note": [{"text": "5 total events (2 control, 3 LDQT) Diarrhea, mild (5/5), resolved w/o sequelae (4/5) ongoing at study exit (1/5), unlikely (2/5) unrelated (3/5), no IP action taken (4/5) temporarily withdrawn (1/5)."}], "title": "Diarrhea as other adverse event", "status": "active", "timing": {"text": "12 weeks"}, "handling": "boolean", "classifier": [{"text": "Other Adverse Event"}, {"text": "Gastrointestinal disorders"}], "definition": {"concept": {"text": "Diarrhea as other adverse event"}}, "resourceType": "EvidenceVariable", "definitionModifier": [{"code": {"text": "Adverse event assessment type"}, "valueCodeableConcept": {"coding": [{"code": "systematic-assessment", "system": "http://hl7.org/fhir/definition-method", "display": "Systematic Assessment"}]}}, {"code": {"text": "Source Vocabulary for Adverse Event Definition"}, "valueCodeableConcept": {"text": "MedDRA 23.0"}}]}, {"id": "NCT03640312-OtherAdverseEvent-5-EG000", "meta": {"profile": ["http://hl7.org/fhir/uv/ebm/StructureDefinition/non-comparative-evidence"]}, "name": "NCT03640312_OtherAdverseEvent_5_EG000", "title": "Abdominal pain upper as other adverse event for QUARTET LDQT in NCT03640312", "status": "active", "statistic": [{"quantity": {"value": 0.03125}, "sampleSize": {"knownDataCount": 32}, "statisticType": {"text": "Percentage"}, "numberAffected": 1, "numberOfEvents": 1}], "resourceType": "Evidence", "variableDefinition": [{"observed": {"display": "Patients randomized to the intervention arm will take a once daily ultra-low-dose quadruple combination therapy (QUARTET LDQT). The LDQT is an overencapsulated combination pill comprising four types of blood pressure lowering medications each at \u00bc standard doses. QUARTET includes candesartan 2mg, amlodipine besylate 1.25mg, indapamide 0.625mg, and bisoprolol 2.5mg. The individual components are currently approved and marketed within the United States.\n\nQUARTET LDQT: Ultra-low-dose combination therapy comprising four different blood pressure lowering drugs at 1/4 dosages. Taken once daily for 12 weeks."}, "description": "QUARTET LDQT", "variableRole": "population"}, {"note": [{"text": "Same as clinicaltrials.gov definition.\n\nA known side effects checklist (included in protocol and consent) was used as a dropdown list for site staff to populate as appropriate at each participant encounter. Any reported side effects from this list were documented as an AE. If an AE did not meet any of these pre-specified terms, the site staff would document 'other' and specify. At specified intervals, a blinded third party MedDRA coder would enter the MedDRA terms into the safety database."}], "observed": {"type": "EvidenceVariable", "reference": "#NCT03640312-OtherAdverseEvent-5"}, "variableRole": "outcome"}]}, {"id": "NCT03640312-OtherAdverseEvent-5-EG001", "meta": {"profile": ["http://hl7.org/fhir/uv/ebm/StructureDefinition/non-comparative-evidence"]}, "name": "NCT03640312_OtherAdverseEvent_5_EG001", "title": "Abdominal pain upper as other adverse event for Candesartan in NCT03640312", "status": "active", "statistic": [{"quantity": {"value": 0.06666666666666667}, "sampleSize": {"knownDataCount": 30}, "statisticType": {"text": "Percentage"}, "numberAffected": 2, "numberOfEvents": 2}], "resourceType": "Evidence", "variableDefinition": [{"observed": {"display": "Patients randomized to the comparison arm will take a once daily 8mg candesartan.\n\nCandesartan: Standard monotherapy of 8mg candesartan. Taken once daily for 12 weeks."}, "description": "Candesartan", "variableRole": "population"}, {"note": [{"text": "Same as clinicaltrials.gov definition.\n\nA known side effects checklist (included in protocol and consent) was used as a dropdown list for site staff to populate as appropriate at each participant encounter. Any reported side effects from this list were documented as an AE. If an AE did not meet any of these pre-specified terms, the site staff would document 'other' and specify. At specified intervals, a blinded third party MedDRA coder would enter the MedDRA terms into the safety database."}], "observed": {"type": "EvidenceVariable", "reference": "#NCT03640312-OtherAdverseEvent-5"}, "variableRole": "outcome"}]}, {"id": "NCT03640312-OtherAdverseEvent-5", "meta": {"profile": ["http://hl7.org/fhir/uv/ebm/StructureDefinition/variable-definition"]}, "note": [{"text": "3 total Stomach cramping (1/3) stomach gas/pain (2/3), mild (3/3), resolved without sequelae (2/3) ongoing at study exit (1/3), unrelated (3/3), no IP action taken (1/3) temporarily withdrawn (1/3) permanently discontinued (1/3)"}], "title": "Abdominal pain upper as other adverse event", "status": "active", "timing": {"text": "12 weeks"}, "handling": "boolean", "classifier": [{"text": "Other Adverse Event"}, {"text": "Gastrointestinal disorders"}], "definition": {"concept": {"text": "Abdominal pain upper as other adverse event"}}, "resourceType": "EvidenceVariable", "definitionModifier": [{"code": {"text": "Adverse event assessment type"}, "valueCodeableConcept": {"coding": [{"code": "systematic-assessment", "system": "http://hl7.org/fhir/definition-method", "display": "Systematic Assessment"}]}}, {"code": {"text": "Source Vocabulary for Adverse Event Definition"}, "valueCodeableConcept": {"text": "MedDRA 23.0"}}]}, {"id": "NCT03640312-OtherAdverseEvent-6-EG000", "meta": {"profile": ["http://hl7.org/fhir/uv/ebm/StructureDefinition/non-comparative-evidence"]}, "name": "NCT03640312_OtherAdverseEvent_6_EG000", "title": "Dry Mouth as other adverse event for QUARTET LDQT in NCT03640312", "status": "active", "statistic": [{"quantity": {"value": 0.03125}, "sampleSize": {"knownDataCount": 32}, "statisticType": {"text": "Percentage"}, "numberAffected": 1, "numberOfEvents": 1}], "resourceType": "Evidence", "variableDefinition": [{"observed": {"display": "Patients randomized to the intervention arm will take a once daily ultra-low-dose quadruple combination therapy (QUARTET LDQT). The LDQT is an overencapsulated combination pill comprising four types of blood pressure lowering medications each at \u00bc standard doses. QUARTET includes candesartan 2mg, amlodipine besylate 1.25mg, indapamide 0.625mg, and bisoprolol 2.5mg. The individual components are currently approved and marketed within the United States.\n\nQUARTET LDQT: Ultra-low-dose combination therapy comprising four different blood pressure lowering drugs at 1/4 dosages. Taken once daily for 12 weeks."}, "description": "QUARTET LDQT", "variableRole": "population"}, {"note": [{"text": "Same as clinicaltrials.gov definition.\n\nA known side effects checklist (included in protocol and consent) was used as a dropdown list for site staff to populate as appropriate at each participant encounter. Any reported side effects from this list were documented as an AE. If an AE did not meet any of these pre-specified terms, the site staff would document 'other' and specify. At specified intervals, a blinded third party MedDRA coder would enter the MedDRA terms into the safety database."}], "observed": {"type": "EvidenceVariable", "reference": "#NCT03640312-OtherAdverseEvent-6"}, "variableRole": "outcome"}]}, {"id": "NCT03640312-OtherAdverseEvent-6-EG001", "meta": {"profile": ["http://hl7.org/fhir/uv/ebm/StructureDefinition/non-comparative-evidence"]}, "name": "NCT03640312_OtherAdverseEvent_6_EG001", "title": "Dry Mouth as other adverse event for Candesartan in NCT03640312", "status": "active", "statistic": [{"quantity": {"value": 0}, "sampleSize": {"knownDataCount": 30}, "statisticType": {"text": "Percentage"}, "numberAffected": 0, "numberOfEvents": 0}], "resourceType": "Evidence", "variableDefinition": [{"observed": {"display": "Patients randomized to the comparison arm will take a once daily 8mg candesartan.\n\nCandesartan: Standard monotherapy of 8mg candesartan. Taken once daily for 12 weeks."}, "description": "Candesartan", "variableRole": "population"}, {"note": [{"text": "Same as clinicaltrials.gov definition.\n\nA known side effects checklist (included in protocol and consent) was used as a dropdown list for site staff to populate as appropriate at each participant encounter. Any reported side effects from this list were documented as an AE. If an AE did not meet any of these pre-specified terms, the site staff would document 'other' and specify. At specified intervals, a blinded third party MedDRA coder would enter the MedDRA terms into the safety database."}], "observed": {"type": "EvidenceVariable", "reference": "#NCT03640312-OtherAdverseEvent-6"}, "variableRole": "outcome"}]}, {"id": "NCT03640312-OtherAdverseEvent-6", "meta": {"profile": ["http://hl7.org/fhir/uv/ebm/StructureDefinition/variable-definition"]}, "note": [{"text": "mild, resolved without sequelae, unrelated, no IP action taken"}], "title": "Dry Mouth as other adverse event", "status": "active", "timing": {"text": "12 weeks"}, "handling": "boolean", "classifier": [{"text": "Other Adverse Event"}, {"text": "Gastrointestinal disorders"}], "definition": {"concept": {"text": "Dry Mouth as other adverse event"}}, "resourceType": "EvidenceVariable", "definitionModifier": [{"code": {"text": "Adverse event assessment type"}, "valueCodeableConcept": {"coding": [{"code": "systematic-assessment", "system": "http://hl7.org/fhir/definition-method", "display": "Systematic Assessment"}]}}, {"code": {"text": "Source Vocabulary for Adverse Event Definition"}, "valueCodeableConcept": {"text": "MedDRA 23.0"}}]}, {"id": "NCT03640312-OtherAdverseEvent-7-EG000", "meta": {"profile": ["http://hl7.org/fhir/uv/ebm/StructureDefinition/non-comparative-evidence"]}, "name": "NCT03640312_OtherAdverseEvent_7_EG000", "title": "Constipation as other adverse event for QUARTET LDQT in NCT03640312", "status": "active", "statistic": [{"quantity": {"value": 0.03125}, "sampleSize": {"knownDataCount": 32}, "statisticType": {"text": "Percentage"}, "numberAffected": 1, "numberOfEvents": 1}], "resourceType": "Evidence", "variableDefinition": [{"observed": {"display": "Patients randomized to the intervention arm will take a once daily ultra-low-dose quadruple combination therapy (QUARTET LDQT). The LDQT is an overencapsulated combination pill comprising four types of blood pressure lowering medications each at \u00bc standard doses. QUARTET includes candesartan 2mg, amlodipine besylate 1.25mg, indapamide 0.625mg, and bisoprolol 2.5mg. The individual components are currently approved and marketed within the United States.\n\nQUARTET LDQT: Ultra-low-dose combination therapy comprising four different blood pressure lowering drugs at 1/4 dosages. Taken once daily for 12 weeks."}, "description": "QUARTET LDQT", "variableRole": "population"}, {"note": [{"text": "Same as clinicaltrials.gov definition.\n\nA known side effects checklist (included in protocol and consent) was used as a dropdown list for site staff to populate as appropriate at each participant encounter. Any reported side effects from this list were documented as an AE. If an AE did not meet any of these pre-specified terms, the site staff would document 'other' and specify. At specified intervals, a blinded third party MedDRA coder would enter the MedDRA terms into the safety database."}], "observed": {"type": "EvidenceVariable", "reference": "#NCT03640312-OtherAdverseEvent-7"}, "variableRole": "outcome"}]}, {"id": "NCT03640312-OtherAdverseEvent-7-EG001", "meta": {"profile": ["http://hl7.org/fhir/uv/ebm/StructureDefinition/non-comparative-evidence"]}, "name": "NCT03640312_OtherAdverseEvent_7_EG001", "title": "Constipation as other adverse event for Candesartan in NCT03640312", "status": "active", "statistic": [{"quantity": {"value": 0}, "sampleSize": {"knownDataCount": 30}, "statisticType": {"text": "Percentage"}, "numberAffected": 0, "numberOfEvents": 0}], "resourceType": "Evidence", "variableDefinition": [{"observed": {"display": "Patients randomized to the comparison arm will take a once daily 8mg candesartan.\n\nCandesartan: Standard monotherapy of 8mg candesartan. Taken once daily for 12 weeks."}, "description": "Candesartan", "variableRole": "population"}, {"note": [{"text": "Same as clinicaltrials.gov definition.\n\nA known side effects checklist (included in protocol and consent) was used as a dropdown list for site staff to populate as appropriate at each participant encounter. Any reported side effects from this list were documented as an AE. If an AE did not meet any of these pre-specified terms, the site staff would document 'other' and specify. At specified intervals, a blinded third party MedDRA coder would enter the MedDRA terms into the safety database."}], "observed": {"type": "EvidenceVariable", "reference": "#NCT03640312-OtherAdverseEvent-7"}, "variableRole": "outcome"}]}, {"id": "NCT03640312-OtherAdverseEvent-7", "meta": {"profile": ["http://hl7.org/fhir/uv/ebm/StructureDefinition/variable-definition"]}, "note": [{"text": "mild, resolved without sequelae, unrelated, no IP action taken"}], "title": "Constipation as other adverse event", "status": "active", "timing": {"text": "12 weeks"}, "handling": "boolean", "classifier": [{"text": "Other Adverse Event"}, {"text": "Gastrointestinal disorders"}], "definition": {"concept": {"text": "Constipation as other adverse event"}}, "resourceType": "EvidenceVariable", "definitionModifier": [{"code": {"text": "Adverse event assessment type"}, "valueCodeableConcept": {"coding": [{"code": "systematic-assessment", "system": "http://hl7.org/fhir/definition-method", "display": "Systematic Assessment"}]}}, {"code": {"text": "Source Vocabulary for Adverse Event Definition"}, "valueCodeableConcept": {"text": "MedDRA 23.0"}}]}, {"id": "NCT03640312-OtherAdverseEvent-8-EG000", "meta": {"profile": ["http://hl7.org/fhir/uv/ebm/StructureDefinition/non-comparative-evidence"]}, "name": "NCT03640312_OtherAdverseEvent_8_EG000", "title": "Throat irritation as other adverse event for QUARTET LDQT in NCT03640312", "status": "active", "statistic": [{"quantity": {"value": 0.03125}, "sampleSize": {"knownDataCount": 32}, "statisticType": {"text": "Percentage"}, "numberAffected": 1, "numberOfEvents": 1}], "resourceType": "Evidence", "variableDefinition": [{"observed": {"display": "Patients randomized to the intervention arm will take a once daily ultra-low-dose quadruple combination therapy (QUARTET LDQT). The LDQT is an overencapsulated combination pill comprising four types of blood pressure lowering medications each at \u00bc standard doses. QUARTET includes candesartan 2mg, amlodipine besylate 1.25mg, indapamide 0.625mg, and bisoprolol 2.5mg. The individual components are currently approved and marketed within the United States.\n\nQUARTET LDQT: Ultra-low-dose combination therapy comprising four different blood pressure lowering drugs at 1/4 dosages. Taken once daily for 12 weeks."}, "description": "QUARTET LDQT", "variableRole": "population"}, {"note": [{"text": "Same as clinicaltrials.gov definition.\n\nA known side effects checklist (included in protocol and consent) was used as a dropdown list for site staff to populate as appropriate at each participant encounter. Any reported side effects from this list were documented as an AE. If an AE did not meet any of these pre-specified terms, the site staff would document 'other' and specify. At specified intervals, a blinded third party MedDRA coder would enter the MedDRA terms into the safety database."}], "observed": {"type": "EvidenceVariable", "reference": "#NCT03640312-OtherAdverseEvent-8"}, "variableRole": "outcome"}]}, {"id": "NCT03640312-OtherAdverseEvent-8-EG001", "meta": {"profile": ["http://hl7.org/fhir/uv/ebm/StructureDefinition/non-comparative-evidence"]}, "name": "NCT03640312_OtherAdverseEvent_8_EG001", "title": "Throat irritation as other adverse event for Candesartan in NCT03640312", "status": "active", "statistic": [{"quantity": {"value": 0}, "sampleSize": {"knownDataCount": 30}, "statisticType": {"text": "Percentage"}, "numberAffected": 0, "numberOfEvents": 0}], "resourceType": "Evidence", "variableDefinition": [{"observed": {"display": "Patients randomized to the comparison arm will take a once daily 8mg candesartan.\n\nCandesartan: Standard monotherapy of 8mg candesartan. Taken once daily for 12 weeks."}, "description": "Candesartan", "variableRole": "population"}, {"note": [{"text": "Same as clinicaltrials.gov definition.\n\nA known side effects checklist (included in protocol and consent) was used as a dropdown list for site staff to populate as appropriate at each participant encounter. Any reported side effects from this list were documented as an AE. If an AE did not meet any of these pre-specified terms, the site staff would document 'other' and specify. At specified intervals, a blinded third party MedDRA coder would enter the MedDRA terms into the safety database."}], "observed": {"type": "EvidenceVariable", "reference": "#NCT03640312-OtherAdverseEvent-8"}, "variableRole": "outcome"}]}, {"id": "NCT03640312-OtherAdverseEvent-8", "meta": {"profile": ["http://hl7.org/fhir/uv/ebm/StructureDefinition/variable-definition"]}, "note": [{"text": "mild, resolved without sequelae, possible relatedness, no IP action taken"}], "title": "Throat irritation as other adverse event", "status": "active", "timing": {"text": "12 weeks"}, "handling": "boolean", "classifier": [{"text": "Other Adverse Event"}, {"text": "Gastrointestinal disorders"}], "definition": {"concept": {"text": "Throat irritation as other adverse event"}}, "resourceType": "EvidenceVariable", "definitionModifier": [{"code": {"text": "Adverse event assessment type"}, "valueCodeableConcept": {"coding": [{"code": "systematic-assessment", "system": "http://hl7.org/fhir/definition-method", "display": "Systematic Assessment"}]}}, {"code": {"text": "Source Vocabulary for Adverse Event Definition"}, "valueCodeableConcept": {"text": "MedDRA 23.0"}}]}, {"id": "NCT03640312-OtherAdverseEvent-9-EG000", "meta": {"profile": ["http://hl7.org/fhir/uv/ebm/StructureDefinition/non-comparative-evidence"]}, "name": "NCT03640312_OtherAdverseEvent_9_EG000", "title": "Nausea as other adverse event for QUARTET LDQT in NCT03640312", "status": "active", "statistic": [{"quantity": {"value": 0}, "sampleSize": {"knownDataCount": 32}, "statisticType": {"text": "Percentage"}, "numberAffected": 0, "numberOfEvents": 0}], "resourceType": "Evidence", "variableDefinition": [{"observed": {"display": "Patients randomized to the intervention arm will take a once daily ultra-low-dose quadruple combination therapy (QUARTET LDQT). The LDQT is an overencapsulated combination pill comprising four types of blood pressure lowering medications each at \u00bc standard doses. QUARTET includes candesartan 2mg, amlodipine besylate 1.25mg, indapamide 0.625mg, and bisoprolol 2.5mg. The individual components are currently approved and marketed within the United States.\n\nQUARTET LDQT: Ultra-low-dose combination therapy comprising four different blood pressure lowering drugs at 1/4 dosages. Taken once daily for 12 weeks."}, "description": "QUARTET LDQT", "variableRole": "population"}, {"note": [{"text": "Same as clinicaltrials.gov definition.\n\nA known side effects checklist (included in protocol and consent) was used as a dropdown list for site staff to populate as appropriate at each participant encounter. Any reported side effects from this list were documented as an AE. If an AE did not meet any of these pre-specified terms, the site staff would document 'other' and specify. At specified intervals, a blinded third party MedDRA coder would enter the MedDRA terms into the safety database."}], "observed": {"type": "EvidenceVariable", "reference": "#NCT03640312-OtherAdverseEvent-9"}, "variableRole": "outcome"}]}, {"id": "NCT03640312-OtherAdverseEvent-9-EG001", "meta": {"profile": ["http://hl7.org/fhir/uv/ebm/StructureDefinition/non-comparative-evidence"]}, "name": "NCT03640312_OtherAdverseEvent_9_EG001", "title": "Nausea as other adverse event for Candesartan in NCT03640312", "status": "active", "statistic": [{"quantity": {"value": 0.03333333333333333}, "sampleSize": {"knownDataCount": 30}, "statisticType": {"text": "Percentage"}, "numberAffected": 1, "numberOfEvents": 1}], "resourceType": "Evidence", "variableDefinition": [{"observed": {"display": "Patients randomized to the comparison arm will take a once daily 8mg candesartan.\n\nCandesartan: Standard monotherapy of 8mg candesartan. Taken once daily for 12 weeks."}, "description": "Candesartan", "variableRole": "population"}, {"note": [{"text": "Same as clinicaltrials.gov definition.\n\nA known side effects checklist (included in protocol and consent) was used as a dropdown list for site staff to populate as appropriate at each participant encounter. Any reported side effects from this list were documented as an AE. If an AE did not meet any of these pre-specified terms, the site staff would document 'other' and specify. At specified intervals, a blinded third party MedDRA coder would enter the MedDRA terms into the safety database."}], "observed": {"type": "EvidenceVariable", "reference": "#NCT03640312-OtherAdverseEvent-9"}, "variableRole": "outcome"}]}, {"id": "NCT03640312-OtherAdverseEvent-9", "meta": {"profile": ["http://hl7.org/fhir/uv/ebm/StructureDefinition/variable-definition"]}, "note": [{"text": "Nausea/vomiting, mild, resolved without sequelae, possible relatedness, permanently discontinued"}], "title": "Nausea as other adverse event", "status": "active", "timing": {"text": "12 weeks"}, "handling": "boolean", "classifier": [{"text": "Other Adverse Event"}, {"text": "Gastrointestinal disorders"}], "definition": {"concept": {"text": "Nausea as other adverse event"}}, "resourceType": "EvidenceVariable", "definitionModifier": [{"code": {"text": "Adverse event assessment type"}, "valueCodeableConcept": {"coding": [{"code": "systematic-assessment", "system": "http://hl7.org/fhir/definition-method", "display": "Systematic Assessment"}]}}, {"code": {"text": "Source Vocabulary for Adverse Event Definition"}, "valueCodeableConcept": {"text": "MedDRA 23.0"}}]}, {"id": "NCT03640312-OtherAdverseEvent-10-EG000", "meta": {"profile": ["http://hl7.org/fhir/uv/ebm/StructureDefinition/non-comparative-evidence"]}, "name": "NCT03640312_OtherAdverseEvent_10_EG000", "title": "Dry throat as other adverse event for QUARTET LDQT in NCT03640312", "status": "active", "statistic": [{"quantity": {"value": 0.03125}, "sampleSize": {"knownDataCount": 32}, "statisticType": {"text": "Percentage"}, "numberAffected": 1, "numberOfEvents": 1}], "resourceType": "Evidence", "variableDefinition": [{"observed": {"display": "Patients randomized to the intervention arm will take a once daily ultra-low-dose quadruple combination therapy (QUARTET LDQT). The LDQT is an overencapsulated combination pill comprising four types of blood pressure lowering medications each at \u00bc standard doses. QUARTET includes candesartan 2mg, amlodipine besylate 1.25mg, indapamide 0.625mg, and bisoprolol 2.5mg. The individual components are currently approved and marketed within the United States.\n\nQUARTET LDQT: Ultra-low-dose combination therapy comprising four different blood pressure lowering drugs at 1/4 dosages. Taken once daily for 12 weeks."}, "description": "QUARTET LDQT", "variableRole": "population"}, {"note": [{"text": "Same as clinicaltrials.gov definition.\n\nA known side effects checklist (included in protocol and consent) was used as a dropdown list for site staff to populate as appropriate at each participant encounter. Any reported side effects from this list were documented as an AE. If an AE did not meet any of these pre-specified terms, the site staff would document 'other' and specify. At specified intervals, a blinded third party MedDRA coder would enter the MedDRA terms into the safety database."}], "observed": {"type": "EvidenceVariable", "reference": "#NCT03640312-OtherAdverseEvent-10"}, "variableRole": "outcome"}]}, {"id": "NCT03640312-OtherAdverseEvent-10-EG001", "meta": {"profile": ["http://hl7.org/fhir/uv/ebm/StructureDefinition/non-comparative-evidence"]}, "name": "NCT03640312_OtherAdverseEvent_10_EG001", "title": "Dry throat as other adverse event for Candesartan in NCT03640312", "status": "active", "statistic": [{"quantity": {"value": 0}, "sampleSize": {"knownDataCount": 30}, "statisticType": {"text": "Percentage"}, "numberAffected": 0, "numberOfEvents": 0}], "resourceType": "Evidence", "variableDefinition": [{"observed": {"display": "Patients randomized to the comparison arm will take a once daily 8mg candesartan.\n\nCandesartan: Standard monotherapy of 8mg candesartan. Taken once daily for 12 weeks."}, "description": "Candesartan", "variableRole": "population"}, {"note": [{"text": "Same as clinicaltrials.gov definition.\n\nA known side effects checklist (included in protocol and consent) was used as a dropdown list for site staff to populate as appropriate at each participant encounter. Any reported side effects from this list were documented as an AE. If an AE did not meet any of these pre-specified terms, the site staff would document 'other' and specify. At specified intervals, a blinded third party MedDRA coder would enter the MedDRA terms into the safety database."}], "observed": {"type": "EvidenceVariable", "reference": "#NCT03640312-OtherAdverseEvent-10"}, "variableRole": "outcome"}]}, {"id": "NCT03640312-OtherAdverseEvent-10", "meta": {"profile": ["http://hl7.org/fhir/uv/ebm/StructureDefinition/variable-definition"]}, "note": [{"text": "mild, resolved without sequelae, possible relatedness, temporarily withdrawn"}], "title": "Dry throat as other adverse event", "status": "active", "timing": {"text": "12 weeks"}, "handling": "boolean", "classifier": [{"text": "Other Adverse Event"}, {"text": "Gastrointestinal disorders"}], "definition": {"concept": {"text": "Dry throat as other adverse event"}}, "resourceType": "EvidenceVariable", "definitionModifier": [{"code": {"text": "Adverse event assessment type"}, "valueCodeableConcept": {"coding": [{"code": "systematic-assessment", "system": "http://hl7.org/fhir/definition-method", "display": "Systematic Assessment"}]}}, {"code": {"text": "Source Vocabulary for Adverse Event Definition"}, "valueCodeableConcept": {"text": "MedDRA 23.0"}}]}, {"id": "NCT03640312-OtherAdverseEvent-11-EG000", "meta": {"profile": ["http://hl7.org/fhir/uv/ebm/StructureDefinition/non-comparative-evidence"]}, "name": "NCT03640312_OtherAdverseEvent_11_EG000", "title": "Vomiting as other adverse event for QUARTET LDQT in NCT03640312", "status": "active", "statistic": [{"quantity": {"value": 0.03125}, "sampleSize": {"knownDataCount": 32}, "statisticType": {"text": "Percentage"}, "numberAffected": 1, "numberOfEvents": 1}], "resourceType": "Evidence", "variableDefinition": [{"observed": {"display": "Patients randomized to the intervention arm will take a once daily ultra-low-dose quadruple combination therapy (QUARTET LDQT). The LDQT is an overencapsulated combination pill comprising four types of blood pressure lowering medications each at \u00bc standard doses. QUARTET includes candesartan 2mg, amlodipine besylate 1.25mg, indapamide 0.625mg, and bisoprolol 2.5mg. The individual components are currently approved and marketed within the United States.\n\nQUARTET LDQT: Ultra-low-dose combination therapy comprising four different blood pressure lowering drugs at 1/4 dosages. Taken once daily for 12 weeks."}, "description": "QUARTET LDQT", "variableRole": "population"}, {"note": [{"text": "Same as clinicaltrials.gov definition.\n\nA known side effects checklist (included in protocol and consent) was used as a dropdown list for site staff to populate as appropriate at each participant encounter. Any reported side effects from this list were documented as an AE. If an AE did not meet any of these pre-specified terms, the site staff would document 'other' and specify. At specified intervals, a blinded third party MedDRA coder would enter the MedDRA terms into the safety database."}], "observed": {"type": "EvidenceVariable", "reference": "#NCT03640312-OtherAdverseEvent-11"}, "variableRole": "outcome"}]}, {"id": "NCT03640312-OtherAdverseEvent-11-EG001", "meta": {"profile": ["http://hl7.org/fhir/uv/ebm/StructureDefinition/non-comparative-evidence"]}, "name": "NCT03640312_OtherAdverseEvent_11_EG001", "title": "Vomiting as other adverse event for Candesartan in NCT03640312", "status": "active", "statistic": [{"quantity": {"value": 0}, "sampleSize": {"knownDataCount": 30}, "statisticType": {"text": "Percentage"}, "numberAffected": 0, "numberOfEvents": 0}], "resourceType": "Evidence", "variableDefinition": [{"observed": {"display": "Patients randomized to the comparison arm will take a once daily 8mg candesartan.\n\nCandesartan: Standard monotherapy of 8mg candesartan. Taken once daily for 12 weeks."}, "description": "Candesartan", "variableRole": "population"}, {"note": [{"text": "Same as clinicaltrials.gov definition.\n\nA known side effects checklist (included in protocol and consent) was used as a dropdown list for site staff to populate as appropriate at each participant encounter. Any reported side effects from this list were documented as an AE. If an AE did not meet any of these pre-specified terms, the site staff would document 'other' and specify. At specified intervals, a blinded third party MedDRA coder would enter the MedDRA terms into the safety database."}], "observed": {"type": "EvidenceVariable", "reference": "#NCT03640312-OtherAdverseEvent-11"}, "variableRole": "outcome"}]}, {"id": "NCT03640312-OtherAdverseEvent-11", "meta": {"profile": ["http://hl7.org/fhir/uv/ebm/StructureDefinition/variable-definition"]}, "note": [{"text": "Nausea/Vomiting, mild, resolved without sequelae, unrelated, temporarily withdrawn"}], "title": "Vomiting as other adverse event", "status": "active", "timing": {"text": "12 weeks"}, "handling": "boolean", "classifier": [{"text": "Other Adverse Event"}, {"text": "Gastrointestinal disorders"}], "definition": {"concept": {"text": "Vomiting as other adverse event"}}, "resourceType": "EvidenceVariable", "definitionModifier": [{"code": {"text": "Adverse event assessment type"}, "valueCodeableConcept": {"coding": [{"code": "systematic-assessment", "system": "http://hl7.org/fhir/definition-method", "display": "Systematic Assessment"}]}}, {"code": {"text": "Source Vocabulary for Adverse Event Definition"}, "valueCodeableConcept": {"text": "MedDRA 23.0"}}]}, {"id": "NCT03640312-OtherAdverseEvent-12-EG000", "meta": {"profile": ["http://hl7.org/fhir/uv/ebm/StructureDefinition/non-comparative-evidence"]}, "name": "NCT03640312_OtherAdverseEvent_12_EG000", "title": "Feeling Hot as other adverse event for QUARTET LDQT in NCT03640312", "status": "active", "statistic": [{"quantity": {"value": 0}, "sampleSize": {"knownDataCount": 32}, "statisticType": {"text": "Percentage"}, "numberAffected": 0, "numberOfEvents": 0}], "resourceType": "Evidence", "variableDefinition": [{"observed": {"display": "Patients randomized to the intervention arm will take a once daily ultra-low-dose quadruple combination therapy (QUARTET LDQT). The LDQT is an overencapsulated combination pill comprising four types of blood pressure lowering medications each at \u00bc standard doses. QUARTET includes candesartan 2mg, amlodipine besylate 1.25mg, indapamide 0.625mg, and bisoprolol 2.5mg. The individual components are currently approved and marketed within the United States.\n\nQUARTET LDQT: Ultra-low-dose combination therapy comprising four different blood pressure lowering drugs at 1/4 dosages. Taken once daily for 12 weeks."}, "description": "QUARTET LDQT", "variableRole": "population"}, {"note": [{"text": "Same as clinicaltrials.gov definition.\n\nA known side effects checklist (included in protocol and consent) was used as a dropdown list for site staff to populate as appropriate at each participant encounter. Any reported side effects from this list were documented as an AE. If an AE did not meet any of these pre-specified terms, the site staff would document 'other' and specify. At specified intervals, a blinded third party MedDRA coder would enter the MedDRA terms into the safety database."}], "observed": {"type": "EvidenceVariable", "reference": "#NCT03640312-OtherAdverseEvent-12"}, "variableRole": "outcome"}]}, {"id": "NCT03640312-OtherAdverseEvent-12-EG001", "meta": {"profile": ["http://hl7.org/fhir/uv/ebm/StructureDefinition/non-comparative-evidence"]}, "name": "NCT03640312_OtherAdverseEvent_12_EG001", "title": "Feeling Hot as other adverse event for Candesartan in NCT03640312", "status": "active", "statistic": [{"quantity": {"value": 0.03333333333333333}, "sampleSize": {"knownDataCount": 30}, "statisticType": {"text": "Percentage"}, "numberAffected": 1, "numberOfEvents": 1}], "resourceType": "Evidence", "variableDefinition": [{"observed": {"display": "Patients randomized to the comparison arm will take a once daily 8mg candesartan.\n\nCandesartan: Standard monotherapy of 8mg candesartan. Taken once daily for 12 weeks."}, "description": "Candesartan", "variableRole": "population"}, {"note": [{"text": "Same as clinicaltrials.gov definition.\n\nA known side effects checklist (included in protocol and consent) was used as a dropdown list for site staff to populate as appropriate at each participant encounter. Any reported side effects from this list were documented as an AE. If an AE did not meet any of these pre-specified terms, the site staff would document 'other' and specify. At specified intervals, a blinded third party MedDRA coder would enter the MedDRA terms into the safety database."}], "observed": {"type": "EvidenceVariable", "reference": "#NCT03640312-OtherAdverseEvent-12"}, "variableRole": "outcome"}]}, {"id": "NCT03640312-OtherAdverseEvent-12", "meta": {"profile": ["http://hl7.org/fhir/uv/ebm/StructureDefinition/variable-definition"]}, "note": [{"text": "Feeling warm, moderate, resolved without sequelae, possible relatedness, permanently discontinued"}], "title": "Feeling Hot as other adverse event", "status": "active", "timing": {"text": "12 weeks"}, "handling": "boolean", "classifier": [{"text": "Other Adverse Event"}, {"text": "General disorders"}], "definition": {"concept": {"text": "Feeling Hot as other adverse event"}}, "resourceType": "EvidenceVariable", "definitionModifier": [{"code": {"text": "Adverse event assessment type"}, "valueCodeableConcept": {"coding": [{"code": "systematic-assessment", "system": "http://hl7.org/fhir/definition-method", "display": "Systematic Assessment"}]}}, {"code": {"text": "Source Vocabulary for Adverse Event Definition"}, "valueCodeableConcept": {"text": "MedDRA 23.0"}}]}, {"id": "NCT03640312-OtherAdverseEvent-13-EG000", "meta": {"profile": ["http://hl7.org/fhir/uv/ebm/StructureDefinition/non-comparative-evidence"]}, "name": "NCT03640312_OtherAdverseEvent_13_EG000", "title": "Influenza like illness as other adverse event for QUARTET LDQT in NCT03640312", "status": "active", "statistic": [{"quantity": {"value": 0}, "sampleSize": {"knownDataCount": 32}, "statisticType": {"text": "Percentage"}, "numberAffected": 0, "numberOfEvents": 0}], "resourceType": "Evidence", "variableDefinition": [{"observed": {"display": "Patients randomized to the intervention arm will take a once daily ultra-low-dose quadruple combination therapy (QUARTET LDQT). The LDQT is an overencapsulated combination pill comprising four types of blood pressure lowering medications each at \u00bc standard doses. QUARTET includes candesartan 2mg, amlodipine besylate 1.25mg, indapamide 0.625mg, and bisoprolol 2.5mg. The individual components are currently approved and marketed within the United States.\n\nQUARTET LDQT: Ultra-low-dose combination therapy comprising four different blood pressure lowering drugs at 1/4 dosages. Taken once daily for 12 weeks."}, "description": "QUARTET LDQT", "variableRole": "population"}, {"note": [{"text": "Same as clinicaltrials.gov definition.\n\nA known side effects checklist (included in protocol and consent) was used as a dropdown list for site staff to populate as appropriate at each participant encounter. Any reported side effects from this list were documented as an AE. If an AE did not meet any of these pre-specified terms, the site staff would document 'other' and specify. At specified intervals, a blinded third party MedDRA coder would enter the MedDRA terms into the safety database."}], "observed": {"type": "EvidenceVariable", "reference": "#NCT03640312-OtherAdverseEvent-13"}, "variableRole": "outcome"}]}, {"id": "NCT03640312-OtherAdverseEvent-13-EG001", "meta": {"profile": ["http://hl7.org/fhir/uv/ebm/StructureDefinition/non-comparative-evidence"]}, "name": "NCT03640312_OtherAdverseEvent_13_EG001", "title": "Influenza like illness as other adverse event for Candesartan in NCT03640312", "status": "active", "statistic": [{"quantity": {"value": 0.03333333333333333}, "sampleSize": {"knownDataCount": 30}, "statisticType": {"text": "Percentage"}, "numberAffected": 1, "numberOfEvents": 1}], "resourceType": "Evidence", "variableDefinition": [{"observed": {"display": "Patients randomized to the comparison arm will take a once daily 8mg candesartan.\n\nCandesartan: Standard monotherapy of 8mg candesartan. Taken once daily for 12 weeks."}, "description": "Candesartan", "variableRole": "population"}, {"note": [{"text": "Same as clinicaltrials.gov definition.\n\nA known side effects checklist (included in protocol and consent) was used as a dropdown list for site staff to populate as appropriate at each participant encounter. Any reported side effects from this list were documented as an AE. If an AE did not meet any of these pre-specified terms, the site staff would document 'other' and specify. At specified intervals, a blinded third party MedDRA coder would enter the MedDRA terms into the safety database."}], "observed": {"type": "EvidenceVariable", "reference": "#NCT03640312-OtherAdverseEvent-13"}, "variableRole": "outcome"}]}, {"id": "NCT03640312-OtherAdverseEvent-13", "meta": {"profile": ["http://hl7.org/fhir/uv/ebm/StructureDefinition/variable-definition"]}, "note": [{"text": "Flu-like symptoms, moderate, ongoing at study exit, unrelated, no IP action taken"}], "title": "Influenza like illness as other adverse event", "status": "active", "timing": {"text": "12 weeks"}, "handling": "boolean", "classifier": [{"text": "Other Adverse Event"}, {"text": "General disorders"}], "definition": {"concept": {"text": "Influenza like illness as other adverse event"}}, "resourceType": "EvidenceVariable", "definitionModifier": [{"code": {"text": "Adverse event assessment type"}, "valueCodeableConcept": {"coding": [{"code": "systematic-assessment", "system": "http://hl7.org/fhir/definition-method", "display": "Systematic Assessment"}]}}, {"code": {"text": "Source Vocabulary for Adverse Event Definition"}, "valueCodeableConcept": {"text": "MedDRA 23.0"}}]}, {"id": "NCT03640312-OtherAdverseEvent-14-EG000", "meta": {"profile": ["http://hl7.org/fhir/uv/ebm/StructureDefinition/non-comparative-evidence"]}, "name": "NCT03640312_OtherAdverseEvent_14_EG000", "title": "Fatigue as other adverse event for QUARTET LDQT in NCT03640312", "status": "active", "statistic": [{"quantity": {"value": 0.0625}, "sampleSize": {"knownDataCount": 32}, "statisticType": {"text": "Percentage"}, "numberAffected": 2, "numberOfEvents": 3}], "resourceType": "Evidence", "variableDefinition": [{"observed": {"display": "Patients randomized to the intervention arm will take a once daily ultra-low-dose quadruple combination therapy (QUARTET LDQT). The LDQT is an overencapsulated combination pill comprising four types of blood pressure lowering medications each at \u00bc standard doses. QUARTET includes candesartan 2mg, amlodipine besylate 1.25mg, indapamide 0.625mg, and bisoprolol 2.5mg. The individual components are currently approved and marketed within the United States.\n\nQUARTET LDQT: Ultra-low-dose combination therapy comprising four different blood pressure lowering drugs at 1/4 dosages. Taken once daily for 12 weeks."}, "description": "QUARTET LDQT", "variableRole": "population"}, {"note": [{"text": "Same as clinicaltrials.gov definition.\n\nA known side effects checklist (included in protocol and consent) was used as a dropdown list for site staff to populate as appropriate at each participant encounter. Any reported side effects from this list were documented as an AE. If an AE did not meet any of these pre-specified terms, the site staff would document 'other' and specify. At specified intervals, a blinded third party MedDRA coder would enter the MedDRA terms into the safety database."}], "observed": {"type": "EvidenceVariable", "reference": "#NCT03640312-OtherAdverseEvent-14"}, "variableRole": "outcome"}]}, {"id": "NCT03640312-OtherAdverseEvent-14-EG001", "meta": {"profile": ["http://hl7.org/fhir/uv/ebm/StructureDefinition/non-comparative-evidence"]}, "name": "NCT03640312_OtherAdverseEvent_14_EG001", "title": "Fatigue as other adverse event for Candesartan in NCT03640312", "status": "active", "statistic": [{"quantity": {"value": 0.03333333333333333}, "sampleSize": {"knownDataCount": 30}, "statisticType": {"text": "Percentage"}, "numberAffected": 1, "numberOfEvents": 1}], "resourceType": "Evidence", "variableDefinition": [{"observed": {"display": "Patients randomized to the comparison arm will take a once daily 8mg candesartan.\n\nCandesartan: Standard monotherapy of 8mg candesartan. Taken once daily for 12 weeks."}, "description": "Candesartan", "variableRole": "population"}, {"note": [{"text": "Same as clinicaltrials.gov definition.\n\nA known side effects checklist (included in protocol and consent) was used as a dropdown list for site staff to populate as appropriate at each participant encounter. Any reported side effects from this list were documented as an AE. If an AE did not meet any of these pre-specified terms, the site staff would document 'other' and specify. At specified intervals, a blinded third party MedDRA coder would enter the MedDRA terms into the safety database."}], "observed": {"type": "EvidenceVariable", "reference": "#NCT03640312-OtherAdverseEvent-14"}, "variableRole": "outcome"}]}, {"id": "NCT03640312-OtherAdverseEvent-14", "meta": {"profile": ["http://hl7.org/fhir/uv/ebm/StructureDefinition/variable-definition"]}, "note": [{"text": "4 total mild (4/4), resolved without sequelae (4/4), unrelated (1/4) unlikely (2/4), possible (1/4), no IP action taken (4/4)"}], "title": "Fatigue as other adverse event", "status": "active", "timing": {"text": "12 weeks"}, "handling": "boolean", "classifier": [{"text": "Other Adverse Event"}, {"text": "General disorders"}], "definition": {"concept": {"text": "Fatigue as other adverse event"}}, "resourceType": "EvidenceVariable", "definitionModifier": [{"code": {"text": "Adverse event assessment type"}, "valueCodeableConcept": {"coding": [{"code": "systematic-assessment", "system": "http://hl7.org/fhir/definition-method", "display": "Systematic Assessment"}]}}, {"code": {"text": "Source Vocabulary for Adverse Event Definition"}, "valueCodeableConcept": {"text": "MedDRA 23.0"}}]}, {"id": "NCT03640312-OtherAdverseEvent-15-EG000", "meta": {"profile": ["http://hl7.org/fhir/uv/ebm/StructureDefinition/non-comparative-evidence"]}, "name": "NCT03640312_OtherAdverseEvent_15_EG000", "title": "Peripheral swelling as other adverse event for QUARTET LDQT in NCT03640312", "status": "active", "statistic": [{"quantity": {"value": 0.03125}, "sampleSize": {"knownDataCount": 32}, "statisticType": {"text": "Percentage"}, "numberAffected": 1, "numberOfEvents": 1}], "resourceType": "Evidence", "variableDefinition": [{"observed": {"display": "Patients randomized to the intervention arm will take a once daily ultra-low-dose quadruple combination therapy (QUARTET LDQT). The LDQT is an overencapsulated combination pill comprising four types of blood pressure lowering medications each at \u00bc standard doses. QUARTET includes candesartan 2mg, amlodipine besylate 1.25mg, indapamide 0.625mg, and bisoprolol 2.5mg. The individual components are currently approved and marketed within the United States.\n\nQUARTET LDQT: Ultra-low-dose combination therapy comprising four different blood pressure lowering drugs at 1/4 dosages. Taken once daily for 12 weeks."}, "description": "QUARTET LDQT", "variableRole": "population"}, {"note": [{"text": "Same as clinicaltrials.gov definition.\n\nA known side effects checklist (included in protocol and consent) was used as a dropdown list for site staff to populate as appropriate at each participant encounter. Any reported side effects from this list were documented as an AE. If an AE did not meet any of these pre-specified terms, the site staff would document 'other' and specify. At specified intervals, a blinded third party MedDRA coder would enter the MedDRA terms into the safety database."}], "observed": {"type": "EvidenceVariable", "reference": "#NCT03640312-OtherAdverseEvent-15"}, "variableRole": "outcome"}]}, {"id": "NCT03640312-OtherAdverseEvent-15-EG001", "meta": {"profile": ["http://hl7.org/fhir/uv/ebm/StructureDefinition/non-comparative-evidence"]}, "name": "NCT03640312_OtherAdverseEvent_15_EG001", "title": "Peripheral swelling as other adverse event for Candesartan in NCT03640312", "status": "active", "statistic": [{"quantity": {"value": 0.1}, "sampleSize": {"knownDataCount": 30}, "statisticType": {"text": "Percentage"}, "numberAffected": 3, "numberOfEvents": 3}], "resourceType": "Evidence", "variableDefinition": [{"observed": {"display": "Patients randomized to the comparison arm will take a once daily 8mg candesartan.\n\nCandesartan: Standard monotherapy of 8mg candesartan. Taken once daily for 12 weeks."}, "description": "Candesartan", "variableRole": "population"}, {"note": [{"text": "Same as clinicaltrials.gov definition.\n\nA known side effects checklist (included in protocol and consent) was used as a dropdown list for site staff to populate as appropriate at each participant encounter. Any reported side effects from this list were documented as an AE. If an AE did not meet any of these pre-specified terms, the site staff would document 'other' and specify. At specified intervals, a blinded third party MedDRA coder would enter the MedDRA terms into the safety database."}], "observed": {"type": "EvidenceVariable", "reference": "#NCT03640312-OtherAdverseEvent-15"}, "variableRole": "outcome"}]}, {"id": "NCT03640312-OtherAdverseEvent-15", "meta": {"profile": ["http://hl7.org/fhir/uv/ebm/StructureDefinition/variable-definition"]}, "note": [{"text": "4 total Swelling of legs/ankles (2/4) swelling of hands/feet (2/4), mild (4/4), resolved without sequelae (3/4) ongoing at study exit (1/4), unrelated (2/4) possible (2/4), no IP action taken (3/4) permanently discontinued (1/4)"}], "title": "Peripheral swelling as other adverse event", "status": "active", "timing": {"text": "12 weeks"}, "handling": "boolean", "classifier": [{"text": "Other Adverse Event"}, {"text": "General disorders"}], "definition": {"concept": {"text": "Peripheral swelling as other adverse event"}}, "resourceType": "EvidenceVariable", "definitionModifier": [{"code": {"text": "Adverse event assessment type"}, "valueCodeableConcept": {"coding": [{"code": "systematic-assessment", "system": "http://hl7.org/fhir/definition-method", "display": "Systematic Assessment"}]}}, {"code": {"text": "Source Vocabulary for Adverse Event Definition"}, "valueCodeableConcept": {"text": "MedDRA 23.0"}}]}, {"id": "NCT03640312-OtherAdverseEvent-16-EG000", "meta": {"profile": ["http://hl7.org/fhir/uv/ebm/StructureDefinition/non-comparative-evidence"]}, "name": "NCT03640312_OtherAdverseEvent_16_EG000", "title": "Chest Pain as other adverse event for QUARTET LDQT in NCT03640312", "status": "active", "statistic": [{"quantity": {"value": 0.03125}, "sampleSize": {"knownDataCount": 32}, "statisticType": {"text": "Percentage"}, "numberAffected": 1, "numberOfEvents": 1}], "resourceType": "Evidence", "variableDefinition": [{"observed": {"display": "Patients randomized to the intervention arm will take a once daily ultra-low-dose quadruple combination therapy (QUARTET LDQT). The LDQT is an overencapsulated combination pill comprising four types of blood pressure lowering medications each at \u00bc standard doses. QUARTET includes candesartan 2mg, amlodipine besylate 1.25mg, indapamide 0.625mg, and bisoprolol 2.5mg. The individual components are currently approved and marketed within the United States.\n\nQUARTET LDQT: Ultra-low-dose combination therapy comprising four different blood pressure lowering drugs at 1/4 dosages. Taken once daily for 12 weeks."}, "description": "QUARTET LDQT", "variableRole": "population"}, {"note": [{"text": "Same as clinicaltrials.gov definition.\n\nA known side effects checklist (included in protocol and consent) was used as a dropdown list for site staff to populate as appropriate at each participant encounter. Any reported side effects from this list were documented as an AE. If an AE did not meet any of these pre-specified terms, the site staff would document 'other' and specify. At specified intervals, a blinded third party MedDRA coder would enter the MedDRA terms into the safety database."}], "observed": {"type": "EvidenceVariable", "reference": "#NCT03640312-OtherAdverseEvent-16"}, "variableRole": "outcome"}]}, {"id": "NCT03640312-OtherAdverseEvent-16-EG001", "meta": {"profile": ["http://hl7.org/fhir/uv/ebm/StructureDefinition/non-comparative-evidence"]}, "name": "NCT03640312_OtherAdverseEvent_16_EG001", "title": "Chest Pain as other adverse event for Candesartan in NCT03640312", "status": "active", "statistic": [{"quantity": {"value": 0}, "sampleSize": {"knownDataCount": 30}, "statisticType": {"text": "Percentage"}, "numberAffected": 0, "numberOfEvents": 0}], "resourceType": "Evidence", "variableDefinition": [{"observed": {"display": "Patients randomized to the comparison arm will take a once daily 8mg candesartan.\n\nCandesartan: Standard monotherapy of 8mg candesartan. Taken once daily for 12 weeks."}, "description": "Candesartan", "variableRole": "population"}, {"note": [{"text": "Same as clinicaltrials.gov definition.\n\nA known side effects checklist (included in protocol and consent) was used as a dropdown list for site staff to populate as appropriate at each participant encounter. Any reported side effects from this list were documented as an AE. If an AE did not meet any of these pre-specified terms, the site staff would document 'other' and specify. At specified intervals, a blinded third party MedDRA coder would enter the MedDRA terms into the safety database."}], "observed": {"type": "EvidenceVariable", "reference": "#NCT03640312-OtherAdverseEvent-16"}, "variableRole": "outcome"}]}, {"id": "NCT03640312-OtherAdverseEvent-16", "meta": {"profile": ["http://hl7.org/fhir/uv/ebm/StructureDefinition/variable-definition"]}, "note": [{"text": "mild, resolved without sequelae, unrelated, no IP action taken"}], "title": "Chest Pain as other adverse event", "status": "active", "timing": {"text": "12 weeks"}, "handling": "boolean", "classifier": [{"text": "Other Adverse Event"}, {"text": "General disorders"}], "definition": {"concept": {"text": "Chest Pain as other adverse event"}}, "resourceType": "EvidenceVariable", "definitionModifier": [{"code": {"text": "Adverse event assessment type"}, "valueCodeableConcept": {"coding": [{"code": "systematic-assessment", "system": "http://hl7.org/fhir/definition-method", "display": "Systematic Assessment"}]}}, {"code": {"text": "Source Vocabulary for Adverse Event Definition"}, "valueCodeableConcept": {"text": "MedDRA 23.0"}}]}, {"id": "NCT03640312-OtherAdverseEvent-17-EG000", "meta": {"profile": ["http://hl7.org/fhir/uv/ebm/StructureDefinition/non-comparative-evidence"]}, "name": "NCT03640312_OtherAdverseEvent_17_EG000", "title": "Asthenia as other adverse event for QUARTET LDQT in NCT03640312", "status": "active", "statistic": [{"quantity": {"value": 0.03125}, "sampleSize": {"knownDataCount": 32}, "statisticType": {"text": "Percentage"}, "numberAffected": 1, "numberOfEvents": 1}], "resourceType": "Evidence", "variableDefinition": [{"observed": {"display": "Patients randomized to the intervention arm will take a once daily ultra-low-dose quadruple combination therapy (QUARTET LDQT). The LDQT is an overencapsulated combination pill comprising four types of blood pressure lowering medications each at \u00bc standard doses. QUARTET includes candesartan 2mg, amlodipine besylate 1.25mg, indapamide 0.625mg, and bisoprolol 2.5mg. The individual components are currently approved and marketed within the United States.\n\nQUARTET LDQT: Ultra-low-dose combination therapy comprising four different blood pressure lowering drugs at 1/4 dosages. Taken once daily for 12 weeks."}, "description": "QUARTET LDQT", "variableRole": "population"}, {"note": [{"text": "Same as clinicaltrials.gov definition.\n\nA known side effects checklist (included in protocol and consent) was used as a dropdown list for site staff to populate as appropriate at each participant encounter. Any reported side effects from this list were documented as an AE. If an AE did not meet any of these pre-specified terms, the site staff would document 'other' and specify. At specified intervals, a blinded third party MedDRA coder would enter the MedDRA terms into the safety database."}], "observed": {"type": "EvidenceVariable", "reference": "#NCT03640312-OtherAdverseEvent-17"}, "variableRole": "outcome"}]}, {"id": "NCT03640312-OtherAdverseEvent-17-EG001", "meta": {"profile": ["http://hl7.org/fhir/uv/ebm/StructureDefinition/non-comparative-evidence"]}, "name": "NCT03640312_OtherAdverseEvent_17_EG001", "title": "Asthenia as other adverse event for Candesartan in NCT03640312", "status": "active", "statistic": [{"quantity": {"value": 0}, "sampleSize": {"knownDataCount": 30}, "statisticType": {"text": "Percentage"}, "numberAffected": 0, "numberOfEvents": 0}], "resourceType": "Evidence", "variableDefinition": [{"observed": {"display": "Patients randomized to the comparison arm will take a once daily 8mg candesartan.\n\nCandesartan: Standard monotherapy of 8mg candesartan. Taken once daily for 12 weeks."}, "description": "Candesartan", "variableRole": "population"}, {"note": [{"text": "Same as clinicaltrials.gov definition.\n\nA known side effects checklist (included in protocol and consent) was used as a dropdown list for site staff to populate as appropriate at each participant encounter. Any reported side effects from this list were documented as an AE. If an AE did not meet any of these pre-specified terms, the site staff would document 'other' and specify. At specified intervals, a blinded third party MedDRA coder would enter the MedDRA terms into the safety database."}], "observed": {"type": "EvidenceVariable", "reference": "#NCT03640312-OtherAdverseEvent-17"}, "variableRole": "outcome"}]}, {"id": "NCT03640312-OtherAdverseEvent-17", "meta": {"profile": ["http://hl7.org/fhir/uv/ebm/StructureDefinition/variable-definition"]}, "note": [{"text": "mild, resolved without sequelae, possible relatedness, temporarily withdrawn"}], "title": "Asthenia as other adverse event", "status": "active", "timing": {"text": "12 weeks"}, "handling": "boolean", "classifier": [{"text": "Other Adverse Event"}, {"text": "General disorders"}], "definition": {"concept": {"text": "Asthenia as other adverse event"}}, "resourceType": "EvidenceVariable", "definitionModifier": [{"code": {"text": "Adverse event assessment type"}, "valueCodeableConcept": {"coding": [{"code": "systematic-assessment", "system": "http://hl7.org/fhir/definition-method", "display": "Systematic Assessment"}]}}, {"code": {"text": "Source Vocabulary for Adverse Event Definition"}, "valueCodeableConcept": {"text": "MedDRA 23.0"}}]}, {"id": "NCT03640312-OtherAdverseEvent-18-EG000", "meta": {"profile": ["http://hl7.org/fhir/uv/ebm/StructureDefinition/non-comparative-evidence"]}, "name": "NCT03640312_OtherAdverseEvent_18_EG000", "title": "Pain as other adverse event for QUARTET LDQT in NCT03640312", "status": "active", "statistic": [{"quantity": {"value": 0.03125}, "sampleSize": {"knownDataCount": 32}, "statisticType": {"text": "Percentage"}, "numberAffected": 1, "numberOfEvents": 1}], "resourceType": "Evidence", "variableDefinition": [{"observed": {"display": "Patients randomized to the intervention arm will take a once daily ultra-low-dose quadruple combination therapy (QUARTET LDQT). The LDQT is an overencapsulated combination pill comprising four types of blood pressure lowering medications each at \u00bc standard doses. QUARTET includes candesartan 2mg, amlodipine besylate 1.25mg, indapamide 0.625mg, and bisoprolol 2.5mg. The individual components are currently approved and marketed within the United States.\n\nQUARTET LDQT: Ultra-low-dose combination therapy comprising four different blood pressure lowering drugs at 1/4 dosages. Taken once daily for 12 weeks."}, "description": "QUARTET LDQT", "variableRole": "population"}, {"note": [{"text": "Same as clinicaltrials.gov definition.\n\nA known side effects checklist (included in protocol and consent) was used as a dropdown list for site staff to populate as appropriate at each participant encounter. Any reported side effects from this list were documented as an AE. If an AE did not meet any of these pre-specified terms, the site staff would document 'other' and specify. At specified intervals, a blinded third party MedDRA coder would enter the MedDRA terms into the safety database."}], "observed": {"type": "EvidenceVariable", "reference": "#NCT03640312-OtherAdverseEvent-18"}, "variableRole": "outcome"}]}, {"id": "NCT03640312-OtherAdverseEvent-18-EG001", "meta": {"profile": ["http://hl7.org/fhir/uv/ebm/StructureDefinition/non-comparative-evidence"]}, "name": "NCT03640312_OtherAdverseEvent_18_EG001", "title": "Pain as other adverse event for Candesartan in NCT03640312", "status": "active", "statistic": [{"quantity": {"value": 0}, "sampleSize": {"knownDataCount": 30}, "statisticType": {"text": "Percentage"}, "numberAffected": 0, "numberOfEvents": 0}], "resourceType": "Evidence", "variableDefinition": [{"observed": {"display": "Patients randomized to the comparison arm will take a once daily 8mg candesartan.\n\nCandesartan: Standard monotherapy of 8mg candesartan. Taken once daily for 12 weeks."}, "description": "Candesartan", "variableRole": "population"}, {"note": [{"text": "Same as clinicaltrials.gov definition.\n\nA known side effects checklist (included in protocol and consent) was used as a dropdown list for site staff to populate as appropriate at each participant encounter. Any reported side effects from this list were documented as an AE. If an AE did not meet any of these pre-specified terms, the site staff would document 'other' and specify. At specified intervals, a blinded third party MedDRA coder would enter the MedDRA terms into the safety database."}], "observed": {"type": "EvidenceVariable", "reference": "#NCT03640312-OtherAdverseEvent-18"}, "variableRole": "outcome"}]}, {"id": "NCT03640312-OtherAdverseEvent-18", "meta": {"profile": ["http://hl7.org/fhir/uv/ebm/StructureDefinition/variable-definition"]}, "note": [{"text": "Body aches, mild, resolved without sequelae, unrelated, temporarily withdrawn"}], "title": "Pain as other adverse event", "status": "active", "timing": {"text": "12 weeks"}, "handling": "boolean", "classifier": [{"text": "Other Adverse Event"}, {"text": "General disorders"}], "definition": {"concept": {"text": "Pain as other adverse event"}}, "resourceType": "EvidenceVariable", "definitionModifier": [{"code": {"text": "Adverse event assessment type"}, "valueCodeableConcept": {"coding": [{"code": "systematic-assessment", "system": "http://hl7.org/fhir/definition-method", "display": "Systematic Assessment"}]}}, {"code": {"text": "Source Vocabulary for Adverse Event Definition"}, "valueCodeableConcept": {"text": "MedDRA 23.0"}}]}, {"id": "NCT03640312-OtherAdverseEvent-19-EG000", "meta": {"profile": ["http://hl7.org/fhir/uv/ebm/StructureDefinition/non-comparative-evidence"]}, "name": "NCT03640312_OtherAdverseEvent_19_EG000", "title": "Blood glucose increased as other adverse event for QUARTET LDQT in NCT03640312", "status": "active", "statistic": [{"quantity": {"value": 0.03125}, "sampleSize": {"knownDataCount": 32}, "statisticType": {"text": "Percentage"}, "numberAffected": 1, "numberOfEvents": 1}], "resourceType": "Evidence", "variableDefinition": [{"observed": {"display": "Patients randomized to the intervention arm will take a once daily ultra-low-dose quadruple combination therapy (QUARTET LDQT). The LDQT is an overencapsulated combination pill comprising four types of blood pressure lowering medications each at \u00bc standard doses. QUARTET includes candesartan 2mg, amlodipine besylate 1.25mg, indapamide 0.625mg, and bisoprolol 2.5mg. The individual components are currently approved and marketed within the United States.\n\nQUARTET LDQT: Ultra-low-dose combination therapy comprising four different blood pressure lowering drugs at 1/4 dosages. Taken once daily for 12 weeks."}, "description": "QUARTET LDQT", "variableRole": "population"}, {"note": [{"text": "Same as clinicaltrials.gov definition.\n\nA known side effects checklist (included in protocol and consent) was used as a dropdown list for site staff to populate as appropriate at each participant encounter. Any reported side effects from this list were documented as an AE. If an AE did not meet any of these pre-specified terms, the site staff would document 'other' and specify. At specified intervals, a blinded third party MedDRA coder would enter the MedDRA terms into the safety database."}], "observed": {"type": "EvidenceVariable", "reference": "#NCT03640312-OtherAdverseEvent-19"}, "variableRole": "outcome"}]}, {"id": "NCT03640312-OtherAdverseEvent-19-EG001", "meta": {"profile": ["http://hl7.org/fhir/uv/ebm/StructureDefinition/non-comparative-evidence"]}, "name": "NCT03640312_OtherAdverseEvent_19_EG001", "title": "Blood glucose increased as other adverse event for Candesartan in NCT03640312", "status": "active", "statistic": [{"quantity": {"value": 0}, "sampleSize": {"knownDataCount": 30}, "statisticType": {"text": "Percentage"}, "numberAffected": 0, "numberOfEvents": 0}], "resourceType": "Evidence", "variableDefinition": [{"observed": {"display": "Patients randomized to the comparison arm will take a once daily 8mg candesartan.\n\nCandesartan: Standard monotherapy of 8mg candesartan. Taken once daily for 12 weeks."}, "description": "Candesartan", "variableRole": "population"}, {"note": [{"text": "Same as clinicaltrials.gov definition.\n\nA known side effects checklist (included in protocol and consent) was used as a dropdown list for site staff to populate as appropriate at each participant encounter. Any reported side effects from this list were documented as an AE. If an AE did not meet any of these pre-specified terms, the site staff would document 'other' and specify. At specified intervals, a blinded third party MedDRA coder would enter the MedDRA terms into the safety database."}], "observed": {"type": "EvidenceVariable", "reference": "#NCT03640312-OtherAdverseEvent-19"}, "variableRole": "outcome"}]}, {"id": "NCT03640312-OtherAdverseEvent-19", "meta": {"profile": ["http://hl7.org/fhir/uv/ebm/StructureDefinition/variable-definition"]}, "note": [{"text": "Elevated blood sugar, mild, ongoing at study exit, unlikely relatedness, no IP action taken"}], "title": "Blood glucose increased as other adverse event", "status": "active", "timing": {"text": "12 weeks"}, "handling": "boolean", "classifier": [{"text": "Other Adverse Event"}, {"text": "Investigations"}], "definition": {"concept": {"text": "Blood glucose increased as other adverse event"}}, "resourceType": "EvidenceVariable", "definitionModifier": [{"code": {"text": "Adverse event assessment type"}, "valueCodeableConcept": {"coding": [{"code": "systematic-assessment", "system": "http://hl7.org/fhir/definition-method", "display": "Systematic Assessment"}]}}, {"code": {"text": "Source Vocabulary for Adverse Event Definition"}, "valueCodeableConcept": {"text": "MedDRA 23.0"}}]}, {"id": "NCT03640312-OtherAdverseEvent-20-EG000", "meta": {"profile": ["http://hl7.org/fhir/uv/ebm/StructureDefinition/non-comparative-evidence"]}, "name": "NCT03640312_OtherAdverseEvent_20_EG000", "title": "Heart rate irregular as other adverse event for QUARTET LDQT in NCT03640312", "status": "active", "statistic": [{"quantity": {"value": 0.0625}, "sampleSize": {"knownDataCount": 32}, "statisticType": {"text": "Percentage"}, "numberAffected": 2, "numberOfEvents": 2}], "resourceType": "Evidence", "variableDefinition": [{"observed": {"display": "Patients randomized to the intervention arm will take a once daily ultra-low-dose quadruple combination therapy (QUARTET LDQT). The LDQT is an overencapsulated combination pill comprising four types of blood pressure lowering medications each at \u00bc standard doses. QUARTET includes candesartan 2mg, amlodipine besylate 1.25mg, indapamide 0.625mg, and bisoprolol 2.5mg. The individual components are currently approved and marketed within the United States.\n\nQUARTET LDQT: Ultra-low-dose combination therapy comprising four different blood pressure lowering drugs at 1/4 dosages. Taken once daily for 12 weeks."}, "description": "QUARTET LDQT", "variableRole": "population"}, {"note": [{"text": "Same as clinicaltrials.gov definition.\n\nA known side effects checklist (included in protocol and consent) was used as a dropdown list for site staff to populate as appropriate at each participant encounter. Any reported side effects from this list were documented as an AE. If an AE did not meet any of these pre-specified terms, the site staff would document 'other' and specify. At specified intervals, a blinded third party MedDRA coder would enter the MedDRA terms into the safety database."}], "observed": {"type": "EvidenceVariable", "reference": "#NCT03640312-OtherAdverseEvent-20"}, "variableRole": "outcome"}]}, {"id": "NCT03640312-OtherAdverseEvent-20-EG001", "meta": {"profile": ["http://hl7.org/fhir/uv/ebm/StructureDefinition/non-comparative-evidence"]}, "name": "NCT03640312_OtherAdverseEvent_20_EG001", "title": "Heart rate irregular as other adverse event for Candesartan in NCT03640312", "status": "active", "statistic": [{"quantity": {"value": 0.06666666666666667}, "sampleSize": {"knownDataCount": 30}, "statisticType": {"text": "Percentage"}, "numberAffected": 2, "numberOfEvents": 3}], "resourceType": "Evidence", "variableDefinition": [{"observed": {"display": "Patients randomized to the comparison arm will take a once daily 8mg candesartan.\n\nCandesartan: Standard monotherapy of 8mg candesartan. Taken once daily for 12 weeks."}, "description": "Candesartan", "variableRole": "population"}, {"note": [{"text": "Same as clinicaltrials.gov definition.\n\nA known side effects checklist (included in protocol and consent) was used as a dropdown list for site staff to populate as appropriate at each participant encounter. Any reported side effects from this list were documented as an AE. If an AE did not meet any of these pre-specified terms, the site staff would document 'other' and specify. At specified intervals, a blinded third party MedDRA coder would enter the MedDRA terms into the safety database."}], "observed": {"type": "EvidenceVariable", "reference": "#NCT03640312-OtherAdverseEvent-20"}, "variableRole": "outcome"}]}, {"id": "NCT03640312-OtherAdverseEvent-20", "meta": {"profile": ["http://hl7.org/fhir/uv/ebm/StructureDefinition/variable-definition"]}, "note": [{"text": "5 total irregular/fast heartbeat (5/5), mild (5/5), resolved without sequelae (4/5) ongoing at study exit (1/5), unrelated (2/5) unlikely (2/5) possible (1/5), no IP action taken (3/5) permanently discontinued (2/5)"}], "title": "Heart rate irregular as other adverse event", "status": "active", "timing": {"text": "12 weeks"}, "handling": "boolean", "classifier": [{"text": "Other Adverse Event"}, {"text": "Investigations"}], "definition": {"concept": {"text": "Heart rate irregular as other adverse event"}}, "resourceType": "EvidenceVariable", "definitionModifier": [{"code": {"text": "Adverse event assessment type"}, "valueCodeableConcept": {"coding": [{"code": "systematic-assessment", "system": "http://hl7.org/fhir/definition-method", "display": "Systematic Assessment"}]}}, {"code": {"text": "Source Vocabulary for Adverse Event Definition"}, "valueCodeableConcept": {"text": "MedDRA 23.0"}}]}, {"id": "NCT03640312-OtherAdverseEvent-21-EG000", "meta": {"profile": ["http://hl7.org/fhir/uv/ebm/StructureDefinition/non-comparative-evidence"]}, "name": "NCT03640312_OtherAdverseEvent_21_EG000", "title": "Back pain as other adverse event for QUARTET LDQT in NCT03640312", "status": "active", "statistic": [{"quantity": {"value": 0}, "sampleSize": {"knownDataCount": 32}, "statisticType": {"text": "Percentage"}, "numberAffected": 0, "numberOfEvents": 0}], "resourceType": "Evidence", "variableDefinition": [{"observed": {"display": "Patients randomized to the intervention arm will take a once daily ultra-low-dose quadruple combination therapy (QUARTET LDQT). The LDQT is an overencapsulated combination pill comprising four types of blood pressure lowering medications each at \u00bc standard doses. QUARTET includes candesartan 2mg, amlodipine besylate 1.25mg, indapamide 0.625mg, and bisoprolol 2.5mg. The individual components are currently approved and marketed within the United States.\n\nQUARTET LDQT: Ultra-low-dose combination therapy comprising four different blood pressure lowering drugs at 1/4 dosages. Taken once daily for 12 weeks."}, "description": "QUARTET LDQT", "variableRole": "population"}, {"note": [{"text": "Same as clinicaltrials.gov definition.\n\nA known side effects checklist (included in protocol and consent) was used as a dropdown list for site staff to populate as appropriate at each participant encounter. Any reported side effects from this list were documented as an AE. If an AE did not meet any of these pre-specified terms, the site staff would document 'other' and specify. At specified intervals, a blinded third party MedDRA coder would enter the MedDRA terms into the safety database."}], "observed": {"type": "EvidenceVariable", "reference": "#NCT03640312-OtherAdverseEvent-21"}, "variableRole": "outcome"}]}, {"id": "NCT03640312-OtherAdverseEvent-21-EG001", "meta": {"profile": ["http://hl7.org/fhir/uv/ebm/StructureDefinition/non-comparative-evidence"]}, "name": "NCT03640312_OtherAdverseEvent_21_EG001", "title": "Back pain as other adverse event for Candesartan in NCT03640312", "status": "active", "statistic": [{"quantity": {"value": 0.03333333333333333}, "sampleSize": {"knownDataCount": 30}, "statisticType": {"text": "Percentage"}, "numberAffected": 1, "numberOfEvents": 1}], "resourceType": "Evidence", "variableDefinition": [{"observed": {"display": "Patients randomized to the comparison arm will take a once daily 8mg candesartan.\n\nCandesartan: Standard monotherapy of 8mg candesartan. Taken once daily for 12 weeks."}, "description": "Candesartan", "variableRole": "population"}, {"note": [{"text": "Same as clinicaltrials.gov definition.\n\nA known side effects checklist (included in protocol and consent) was used as a dropdown list for site staff to populate as appropriate at each participant encounter. Any reported side effects from this list were documented as an AE. If an AE did not meet any of these pre-specified terms, the site staff would document 'other' and specify. At specified intervals, a blinded third party MedDRA coder would enter the MedDRA terms into the safety database."}], "observed": {"type": "EvidenceVariable", "reference": "#NCT03640312-OtherAdverseEvent-21"}, "variableRole": "outcome"}]}, {"id": "NCT03640312-OtherAdverseEvent-21", "meta": {"profile": ["http://hl7.org/fhir/uv/ebm/StructureDefinition/variable-definition"]}, "note": [{"text": "mild, ongoing at study exit, unlikely relatedness, no IP action taken"}], "title": "Back pain as other adverse event", "status": "active", "timing": {"text": "12 weeks"}, "handling": "boolean", "classifier": [{"text": "Other Adverse Event"}, {"text": "Musculoskeletal and connective tissue disorders"}], "definition": {"concept": {"text": "Back pain as other adverse event"}}, "resourceType": "EvidenceVariable", "definitionModifier": [{"code": {"text": "Adverse event assessment type"}, "valueCodeableConcept": {"coding": [{"code": "systematic-assessment", "system": "http://hl7.org/fhir/definition-method", "display": "Systematic Assessment"}]}}, {"code": {"text": "Source Vocabulary for Adverse Event Definition"}, "valueCodeableConcept": {"text": "MedDRA 23.0"}}]}, {"id": "NCT03640312-OtherAdverseEvent-22-EG000", "meta": {"profile": ["http://hl7.org/fhir/uv/ebm/StructureDefinition/non-comparative-evidence"]}, "name": "NCT03640312_OtherAdverseEvent_22_EG000", "title": "Muscle cramps/spasms as other adverse event for QUARTET LDQT in NCT03640312", "status": "active", "statistic": [{"quantity": {"value": 0.03125}, "sampleSize": {"knownDataCount": 32}, "statisticType": {"text": "Percentage"}, "numberAffected": 1, "numberOfEvents": 1}], "resourceType": "Evidence", "variableDefinition": [{"observed": {"display": "Patients randomized to the intervention arm will take a once daily ultra-low-dose quadruple combination therapy (QUARTET LDQT). The LDQT is an overencapsulated combination pill comprising four types of blood pressure lowering medications each at \u00bc standard doses. QUARTET includes candesartan 2mg, amlodipine besylate 1.25mg, indapamide 0.625mg, and bisoprolol 2.5mg. The individual components are currently approved and marketed within the United States.\n\nQUARTET LDQT: Ultra-low-dose combination therapy comprising four different blood pressure lowering drugs at 1/4 dosages. Taken once daily for 12 weeks."}, "description": "QUARTET LDQT", "variableRole": "population"}, {"note": [{"text": "Same as clinicaltrials.gov definition.\n\nA known side effects checklist (included in protocol and consent) was used as a dropdown list for site staff to populate as appropriate at each participant encounter. Any reported side effects from this list were documented as an AE. If an AE did not meet any of these pre-specified terms, the site staff would document 'other' and specify. At specified intervals, a blinded third party MedDRA coder would enter the MedDRA terms into the safety database."}], "observed": {"type": "EvidenceVariable", "reference": "#NCT03640312-OtherAdverseEvent-22"}, "variableRole": "outcome"}]}, {"id": "NCT03640312-OtherAdverseEvent-22-EG001", "meta": {"profile": ["http://hl7.org/fhir/uv/ebm/StructureDefinition/non-comparative-evidence"]}, "name": "NCT03640312_OtherAdverseEvent_22_EG001", "title": "Muscle cramps/spasms as other adverse event for Candesartan in NCT03640312", "status": "active", "statistic": [{"quantity": {"value": 0.03333333333333333}, "sampleSize": {"knownDataCount": 30}, "statisticType": {"text": "Percentage"}, "numberAffected": 1, "numberOfEvents": 1}], "resourceType": "Evidence", "variableDefinition": [{"observed": {"display": "Patients randomized to the comparison arm will take a once daily 8mg candesartan.\n\nCandesartan: Standard monotherapy of 8mg candesartan. Taken once daily for 12 weeks."}, "description": "Candesartan", "variableRole": "population"}, {"note": [{"text": "Same as clinicaltrials.gov definition.\n\nA known side effects checklist (included in protocol and consent) was used as a dropdown list for site staff to populate as appropriate at each participant encounter. Any reported side effects from this list were documented as an AE. If an AE did not meet any of these pre-specified terms, the site staff would document 'other' and specify. At specified intervals, a blinded third party MedDRA coder would enter the MedDRA terms into the safety database."}], "observed": {"type": "EvidenceVariable", "reference": "#NCT03640312-OtherAdverseEvent-22"}, "variableRole": "outcome"}]}, {"id": "NCT03640312-OtherAdverseEvent-22", "meta": {"profile": ["http://hl7.org/fhir/uv/ebm/StructureDefinition/variable-definition"]}, "note": [{"text": "2 total mild (1/2) severe (1/2), resolved without sequelae (2/2), unrelated (1/2) unlikely (1/2), no IP action taken (2/2)"}], "title": "Muscle cramps/spasms as other adverse event", "status": "active", "timing": {"text": "12 weeks"}, "handling": "boolean", "classifier": [{"text": "Other Adverse Event"}, {"text": "Musculoskeletal and connective tissue disorders"}], "definition": {"concept": {"text": "Muscle cramps/spasms as other adverse event"}}, "resourceType": "EvidenceVariable", "definitionModifier": [{"code": {"text": "Adverse event assessment type"}, "valueCodeableConcept": {"coding": [{"code": "systematic-assessment", "system": "http://hl7.org/fhir/definition-method", "display": "Systematic Assessment"}]}}, {"code": {"text": "Source Vocabulary for Adverse Event Definition"}, "valueCodeableConcept": {"text": "MedDRA 23.0"}}]}, {"id": "NCT03640312-OtherAdverseEvent-23-EG000", "meta": {"profile": ["http://hl7.org/fhir/uv/ebm/StructureDefinition/non-comparative-evidence"]}, "name": "NCT03640312_OtherAdverseEvent_23_EG000", "title": "Headache as other adverse event for QUARTET LDQT in NCT03640312", "status": "active", "statistic": [{"quantity": {"value": 0.15625}, "sampleSize": {"knownDataCount": 32}, "statisticType": {"text": "Percentage"}, "numberAffected": 5, "numberOfEvents": 6}], "resourceType": "Evidence", "variableDefinition": [{"observed": {"display": "Patients randomized to the intervention arm will take a once daily ultra-low-dose quadruple combination therapy (QUARTET LDQT). The LDQT is an overencapsulated combination pill comprising four types of blood pressure lowering medications each at \u00bc standard doses. QUARTET includes candesartan 2mg, amlodipine besylate 1.25mg, indapamide 0.625mg, and bisoprolol 2.5mg. The individual components are currently approved and marketed within the United States.\n\nQUARTET LDQT: Ultra-low-dose combination therapy comprising four different blood pressure lowering drugs at 1/4 dosages. Taken once daily for 12 weeks."}, "description": "QUARTET LDQT", "variableRole": "population"}, {"note": [{"text": "Same as clinicaltrials.gov definition.\n\nA known side effects checklist (included in protocol and consent) was used as a dropdown list for site staff to populate as appropriate at each participant encounter. Any reported side effects from this list were documented as an AE. If an AE did not meet any of these pre-specified terms, the site staff would document 'other' and specify. At specified intervals, a blinded third party MedDRA coder would enter the MedDRA terms into the safety database."}], "observed": {"type": "EvidenceVariable", "reference": "#NCT03640312-OtherAdverseEvent-23"}, "variableRole": "outcome"}]}, {"id": "NCT03640312-OtherAdverseEvent-23-EG001", "meta": {"profile": ["http://hl7.org/fhir/uv/ebm/StructureDefinition/non-comparative-evidence"]}, "name": "NCT03640312_OtherAdverseEvent_23_EG001", "title": "Headache as other adverse event for Candesartan in NCT03640312", "status": "active", "statistic": [{"quantity": {"value": 0.06666666666666667}, "sampleSize": {"knownDataCount": 30}, "statisticType": {"text": "Percentage"}, "numberAffected": 2, "numberOfEvents": 2}], "resourceType": "Evidence", "variableDefinition": [{"observed": {"display": "Patients randomized to the comparison arm will take a once daily 8mg candesartan.\n\nCandesartan: Standard monotherapy of 8mg candesartan. Taken once daily for 12 weeks."}, "description": "Candesartan", "variableRole": "population"}, {"note": [{"text": "Same as clinicaltrials.gov definition.\n\nA known side effects checklist (included in protocol and consent) was used as a dropdown list for site staff to populate as appropriate at each participant encounter. Any reported side effects from this list were documented as an AE. If an AE did not meet any of these pre-specified terms, the site staff would document 'other' and specify. At specified intervals, a blinded third party MedDRA coder would enter the MedDRA terms into the safety database."}], "observed": {"type": "EvidenceVariable", "reference": "#NCT03640312-OtherAdverseEvent-23"}, "variableRole": "outcome"}]}, {"id": "NCT03640312-OtherAdverseEvent-23", "meta": {"profile": ["http://hl7.org/fhir/uv/ebm/StructureDefinition/variable-definition"]}, "note": [{"text": "8 total mild (8/8), resolved without sequelae (7/8) ongoing at study exit (1/8), unrelated (4/8) unlikely (3/8) possible (1/8), no IP action taken (6/8) permanently discontinued (2/8)"}], "title": "Headache as other adverse event", "status": "active", "timing": {"text": "12 weeks"}, "handling": "boolean", "classifier": [{"text": "Other Adverse Event"}, {"text": "Nervous system disorders"}], "definition": {"concept": {"text": "Headache as other adverse event"}}, "resourceType": "EvidenceVariable", "definitionModifier": [{"code": {"text": "Adverse event assessment type"}, "valueCodeableConcept": {"coding": [{"code": "systematic-assessment", "system": "http://hl7.org/fhir/definition-method", "display": "Systematic Assessment"}]}}, {"code": {"text": "Source Vocabulary for Adverse Event Definition"}, "valueCodeableConcept": {"text": "MedDRA 23.0"}}]}, {"id": "NCT03640312-OtherAdverseEvent-24-EG000", "meta": {"profile": ["http://hl7.org/fhir/uv/ebm/StructureDefinition/non-comparative-evidence"]}, "name": "NCT03640312_OtherAdverseEvent_24_EG000", "title": "Dizziness as other adverse event for QUARTET LDQT in NCT03640312", "status": "active", "statistic": [{"quantity": {"value": 0.0625}, "sampleSize": {"knownDataCount": 32}, "statisticType": {"text": "Percentage"}, "numberAffected": 2, "numberOfEvents": 2}], "resourceType": "Evidence", "variableDefinition": [{"observed": {"display": "Patients randomized to the intervention arm will take a once daily ultra-low-dose quadruple combination therapy (QUARTET LDQT). The LDQT is an overencapsulated combination pill comprising four types of blood pressure lowering medications each at \u00bc standard doses. QUARTET includes candesartan 2mg, amlodipine besylate 1.25mg, indapamide 0.625mg, and bisoprolol 2.5mg. The individual components are currently approved and marketed within the United States.\n\nQUARTET LDQT: Ultra-low-dose combination therapy comprising four different blood pressure lowering drugs at 1/4 dosages. Taken once daily for 12 weeks."}, "description": "QUARTET LDQT", "variableRole": "population"}, {"note": [{"text": "Same as clinicaltrials.gov definition.\n\nA known side effects checklist (included in protocol and consent) was used as a dropdown list for site staff to populate as appropriate at each participant encounter. Any reported side effects from this list were documented as an AE. If an AE did not meet any of these pre-specified terms, the site staff would document 'other' and specify. At specified intervals, a blinded third party MedDRA coder would enter the MedDRA terms into the safety database."}], "observed": {"type": "EvidenceVariable", "reference": "#NCT03640312-OtherAdverseEvent-24"}, "variableRole": "outcome"}]}, {"id": "NCT03640312-OtherAdverseEvent-24-EG001", "meta": {"profile": ["http://hl7.org/fhir/uv/ebm/StructureDefinition/non-comparative-evidence"]}, "name": "NCT03640312_OtherAdverseEvent_24_EG001", "title": "Dizziness as other adverse event for Candesartan in NCT03640312", "status": "active", "statistic": [{"quantity": {"value": 0}, "sampleSize": {"knownDataCount": 30}, "statisticType": {"text": "Percentage"}, "numberAffected": 0, "numberOfEvents": 0}], "resourceType": "Evidence", "variableDefinition": [{"observed": {"display": "Patients randomized to the comparison arm will take a once daily 8mg candesartan.\n\nCandesartan: Standard monotherapy of 8mg candesartan. Taken once daily for 12 weeks."}, "description": "Candesartan", "variableRole": "population"}, {"note": [{"text": "Same as clinicaltrials.gov definition.\n\nA known side effects checklist (included in protocol and consent) was used as a dropdown list for site staff to populate as appropriate at each participant encounter. Any reported side effects from this list were documented as an AE. If an AE did not meet any of these pre-specified terms, the site staff would document 'other' and specify. At specified intervals, a blinded third party MedDRA coder would enter the MedDRA terms into the safety database."}], "observed": {"type": "EvidenceVariable", "reference": "#NCT03640312-OtherAdverseEvent-24"}, "variableRole": "outcome"}]}, {"id": "NCT03640312-OtherAdverseEvent-24", "meta": {"profile": ["http://hl7.org/fhir/uv/ebm/StructureDefinition/variable-definition"]}, "note": [{"text": "2 total mild (2/2), resolved without sequelae (2/2), possible relatedness (2/2), no IP action taken (2/2)"}], "title": "Dizziness as other adverse event", "status": "active", "timing": {"text": "12 weeks"}, "handling": "boolean", "classifier": [{"text": "Other Adverse Event"}, {"text": "Nervous system disorders"}], "definition": {"concept": {"text": "Dizziness as other adverse event"}}, "resourceType": "EvidenceVariable", "definitionModifier": [{"code": {"text": "Adverse event assessment type"}, "valueCodeableConcept": {"coding": [{"code": "systematic-assessment", "system": "http://hl7.org/fhir/definition-method", "display": "Systematic Assessment"}]}}, {"code": {"text": "Source Vocabulary for Adverse Event Definition"}, "valueCodeableConcept": {"text": "MedDRA 23.0"}}]}, {"id": "NCT03640312-OtherAdverseEvent-25-EG000", "meta": {"profile": ["http://hl7.org/fhir/uv/ebm/StructureDefinition/non-comparative-evidence"]}, "name": "NCT03640312_OtherAdverseEvent_25_EG000", "title": "Vision blurred as other adverse event for QUARTET LDQT in NCT03640312", "status": "active", "statistic": [{"quantity": {"value": 0.03125}, "sampleSize": {"knownDataCount": 32}, "statisticType": {"text": "Percentage"}, "numberAffected": 1, "numberOfEvents": 1}], "resourceType": "Evidence", "variableDefinition": [{"observed": {"display": "Patients randomized to the intervention arm will take a once daily ultra-low-dose quadruple combination therapy (QUARTET LDQT). The LDQT is an overencapsulated combination pill comprising four types of blood pressure lowering medications each at \u00bc standard doses. QUARTET includes candesartan 2mg, amlodipine besylate 1.25mg, indapamide 0.625mg, and bisoprolol 2.5mg. The individual components are currently approved and marketed within the United States.\n\nQUARTET LDQT: Ultra-low-dose combination therapy comprising four different blood pressure lowering drugs at 1/4 dosages. Taken once daily for 12 weeks."}, "description": "QUARTET LDQT", "variableRole": "population"}, {"note": [{"text": "Same as clinicaltrials.gov definition.\n\nA known side effects checklist (included in protocol and consent) was used as a dropdown list for site staff to populate as appropriate at each participant encounter. Any reported side effects from this list were documented as an AE. If an AE did not meet any of these pre-specified terms, the site staff would document 'other' and specify. At specified intervals, a blinded third party MedDRA coder would enter the MedDRA terms into the safety database."}], "observed": {"type": "EvidenceVariable", "reference": "#NCT03640312-OtherAdverseEvent-25"}, "variableRole": "outcome"}]}, {"id": "NCT03640312-OtherAdverseEvent-25-EG001", "meta": {"profile": ["http://hl7.org/fhir/uv/ebm/StructureDefinition/non-comparative-evidence"]}, "name": "NCT03640312_OtherAdverseEvent_25_EG001", "title": "Vision blurred as other adverse event for Candesartan in NCT03640312", "status": "active", "statistic": [{"quantity": {"value": 0}, "sampleSize": {"knownDataCount": 30}, "statisticType": {"text": "Percentage"}, "numberAffected": 0, "numberOfEvents": 0}], "resourceType": "Evidence", "variableDefinition": [{"observed": {"display": "Patients randomized to the comparison arm will take a once daily 8mg candesartan.\n\nCandesartan: Standard monotherapy of 8mg candesartan. Taken once daily for 12 weeks."}, "description": "Candesartan", "variableRole": "population"}, {"note": [{"text": "Same as clinicaltrials.gov definition.\n\nA known side effects checklist (included in protocol and consent) was used as a dropdown list for site staff to populate as appropriate at each participant encounter. Any reported side effects from this list were documented as an AE. If an AE did not meet any of these pre-specified terms, the site staff would document 'other' and specify. At specified intervals, a blinded third party MedDRA coder would enter the MedDRA terms into the safety database."}], "observed": {"type": "EvidenceVariable", "reference": "#NCT03640312-OtherAdverseEvent-25"}, "variableRole": "outcome"}]}, {"id": "NCT03640312-OtherAdverseEvent-25", "meta": {"profile": ["http://hl7.org/fhir/uv/ebm/StructureDefinition/variable-definition"]}, "note": [{"text": "Blurred vision/vision or hearing changes, mild, resolved without sequelae, unlikely relatedness, permanently discontinued"}], "title": "Vision blurred as other adverse event", "status": "active", "timing": {"text": "12 weeks"}, "handling": "boolean", "classifier": [{"text": "Other Adverse Event"}, {"text": "Nervous system disorders"}], "definition": {"concept": {"text": "Vision blurred as other adverse event"}}, "resourceType": "EvidenceVariable", "definitionModifier": [{"code": {"text": "Adverse event assessment type"}, "valueCodeableConcept": {"coding": [{"code": "systematic-assessment", "system": "http://hl7.org/fhir/definition-method", "display": "Systematic Assessment"}]}}, {"code": {"text": "Source Vocabulary for Adverse Event Definition"}, "valueCodeableConcept": {"text": "MedDRA 23.0"}}]}, {"id": "NCT03640312-OtherAdverseEvent-26-EG000", "meta": {"profile": ["http://hl7.org/fhir/uv/ebm/StructureDefinition/non-comparative-evidence"]}, "name": "NCT03640312_OtherAdverseEvent_26_EG000", "title": "Hypoaesthesia as other adverse event for QUARTET LDQT in NCT03640312", "status": "active", "statistic": [{"quantity": {"value": 0.03125}, "sampleSize": {"knownDataCount": 32}, "statisticType": {"text": "Percentage"}, "numberAffected": 1, "numberOfEvents": 1}], "resourceType": "Evidence", "variableDefinition": [{"observed": {"display": "Patients randomized to the intervention arm will take a once daily ultra-low-dose quadruple combination therapy (QUARTET LDQT). The LDQT is an overencapsulated combination pill comprising four types of blood pressure lowering medications each at \u00bc standard doses. QUARTET includes candesartan 2mg, amlodipine besylate 1.25mg, indapamide 0.625mg, and bisoprolol 2.5mg. The individual components are currently approved and marketed within the United States.\n\nQUARTET LDQT: Ultra-low-dose combination therapy comprising four different blood pressure lowering drugs at 1/4 dosages. Taken once daily for 12 weeks."}, "description": "QUARTET LDQT", "variableRole": "population"}, {"note": [{"text": "Same as clinicaltrials.gov definition.\n\nA known side effects checklist (included in protocol and consent) was used as a dropdown list for site staff to populate as appropriate at each participant encounter. Any reported side effects from this list were documented as an AE. If an AE did not meet any of these pre-specified terms, the site staff would document 'other' and specify. At specified intervals, a blinded third party MedDRA coder would enter the MedDRA terms into the safety database."}], "observed": {"type": "EvidenceVariable", "reference": "#NCT03640312-OtherAdverseEvent-26"}, "variableRole": "outcome"}]}, {"id": "NCT03640312-OtherAdverseEvent-26-EG001", "meta": {"profile": ["http://hl7.org/fhir/uv/ebm/StructureDefinition/non-comparative-evidence"]}, "name": "NCT03640312_OtherAdverseEvent_26_EG001", "title": "Hypoaesthesia as other adverse event for Candesartan in NCT03640312", "status": "active", "statistic": [{"quantity": {"value": 0}, "sampleSize": {"knownDataCount": 30}, "statisticType": {"text": "Percentage"}, "numberAffected": 0, "numberOfEvents": 0}], "resourceType": "Evidence", "variableDefinition": [{"observed": {"display": "Patients randomized to the comparison arm will take a once daily 8mg candesartan.\n\nCandesartan: Standard monotherapy of 8mg candesartan. Taken once daily for 12 weeks."}, "description": "Candesartan", "variableRole": "population"}, {"note": [{"text": "Same as clinicaltrials.gov definition.\n\nA known side effects checklist (included in protocol and consent) was used as a dropdown list for site staff to populate as appropriate at each participant encounter. Any reported side effects from this list were documented as an AE. If an AE did not meet any of these pre-specified terms, the site staff would document 'other' and specify. At specified intervals, a blinded third party MedDRA coder would enter the MedDRA terms into the safety database."}], "observed": {"type": "EvidenceVariable", "reference": "#NCT03640312-OtherAdverseEvent-26"}, "variableRole": "outcome"}]}, {"id": "NCT03640312-OtherAdverseEvent-26", "meta": {"profile": ["http://hl7.org/fhir/uv/ebm/StructureDefinition/variable-definition"]}, "note": [{"text": "cold/tingling/numb hands/feet, mild, resolved without sequelae, unrelated, no IP action taken"}], "title": "Hypoaesthesia as other adverse event", "status": "active", "timing": {"text": "12 weeks"}, "handling": "boolean", "classifier": [{"text": "Other Adverse Event"}, {"text": "Nervous system disorders"}], "definition": {"concept": {"text": "Hypoaesthesia as other adverse event"}}, "resourceType": "EvidenceVariable", "definitionModifier": [{"code": {"text": "Adverse event assessment type"}, "valueCodeableConcept": {"coding": [{"code": "systematic-assessment", "system": "http://hl7.org/fhir/definition-method", "display": "Systematic Assessment"}]}}, {"code": {"text": "Source Vocabulary for Adverse Event Definition"}, "valueCodeableConcept": {"text": "MedDRA 23.0"}}]}, {"id": "NCT03640312-OtherAdverseEvent-27-EG000", "meta": {"profile": ["http://hl7.org/fhir/uv/ebm/StructureDefinition/non-comparative-evidence"]}, "name": "NCT03640312_OtherAdverseEvent_27_EG000", "title": "Anxiety as other adverse event for QUARTET LDQT in NCT03640312", "status": "active", "statistic": [{"quantity": {"value": 0.0625}, "sampleSize": {"knownDataCount": 32}, "statisticType": {"text": "Percentage"}, "numberAffected": 2, "numberOfEvents": 2}], "resourceType": "Evidence", "variableDefinition": [{"observed": {"display": "Patients randomized to the intervention arm will take a once daily ultra-low-dose quadruple combination therapy (QUARTET LDQT). The LDQT is an overencapsulated combination pill comprising four types of blood pressure lowering medications each at \u00bc standard doses. QUARTET includes candesartan 2mg, amlodipine besylate 1.25mg, indapamide 0.625mg, and bisoprolol 2.5mg. The individual components are currently approved and marketed within the United States.\n\nQUARTET LDQT: Ultra-low-dose combination therapy comprising four different blood pressure lowering drugs at 1/4 dosages. Taken once daily for 12 weeks."}, "description": "QUARTET LDQT", "variableRole": "population"}, {"note": [{"text": "Same as clinicaltrials.gov definition.\n\nA known side effects checklist (included in protocol and consent) was used as a dropdown list for site staff to populate as appropriate at each participant encounter. Any reported side effects from this list were documented as an AE. If an AE did not meet any of these pre-specified terms, the site staff would document 'other' and specify. At specified intervals, a blinded third party MedDRA coder would enter the MedDRA terms into the safety database."}], "observed": {"type": "EvidenceVariable", "reference": "#NCT03640312-OtherAdverseEvent-27"}, "variableRole": "outcome"}]}, {"id": "NCT03640312-OtherAdverseEvent-27-EG001", "meta": {"profile": ["http://hl7.org/fhir/uv/ebm/StructureDefinition/non-comparative-evidence"]}, "name": "NCT03640312_OtherAdverseEvent_27_EG001", "title": "Anxiety as other adverse event for Candesartan in NCT03640312", "status": "active", "statistic": [{"quantity": {"value": 0.03333333333333333}, "sampleSize": {"knownDataCount": 30}, "statisticType": {"text": "Percentage"}, "numberAffected": 1, "numberOfEvents": 1}], "resourceType": "Evidence", "variableDefinition": [{"observed": {"display": "Patients randomized to the comparison arm will take a once daily 8mg candesartan.\n\nCandesartan: Standard monotherapy of 8mg candesartan. Taken once daily for 12 weeks."}, "description": "Candesartan", "variableRole": "population"}, {"note": [{"text": "Same as clinicaltrials.gov definition.\n\nA known side effects checklist (included in protocol and consent) was used as a dropdown list for site staff to populate as appropriate at each participant encounter. Any reported side effects from this list were documented as an AE. If an AE did not meet any of these pre-specified terms, the site staff would document 'other' and specify. At specified intervals, a blinded third party MedDRA coder would enter the MedDRA terms into the safety database."}], "observed": {"type": "EvidenceVariable", "reference": "#NCT03640312-OtherAdverseEvent-27"}, "variableRole": "outcome"}]}, {"id": "NCT03640312-OtherAdverseEvent-27", "meta": {"profile": ["http://hl7.org/fhir/uv/ebm/StructureDefinition/variable-definition"]}, "note": [{"text": "3 total mild (3/3), resolved without sequelae (1/3) resolved with sequelae (1/3) ongoing at study exit (1/3), unrelated (2/3) possible (1/3), no IP action taken (3/3)"}], "title": "Anxiety as other adverse event", "status": "active", "timing": {"text": "12 weeks"}, "handling": "boolean", "classifier": [{"text": "Other Adverse Event"}, {"text": "Psychiatric disorders"}], "definition": {"concept": {"text": "Anxiety as other adverse event"}}, "resourceType": "EvidenceVariable", "definitionModifier": [{"code": {"text": "Adverse event assessment type"}, "valueCodeableConcept": {"coding": [{"code": "systematic-assessment", "system": "http://hl7.org/fhir/definition-method", "display": "Systematic Assessment"}]}}, {"code": {"text": "Source Vocabulary for Adverse Event Definition"}, "valueCodeableConcept": {"text": "MedDRA 23.0"}}]}, {"id": "NCT03640312-OtherAdverseEvent-28-EG000", "meta": {"profile": ["http://hl7.org/fhir/uv/ebm/StructureDefinition/non-comparative-evidence"]}, "name": "NCT03640312_OtherAdverseEvent_28_EG000", "title": "Nasopharyngitis as other adverse event for QUARTET LDQT in NCT03640312", "status": "active", "statistic": [{"quantity": {"value": 0}, "sampleSize": {"knownDataCount": 32}, "statisticType": {"text": "Percentage"}, "numberAffected": 0, "numberOfEvents": 0}], "resourceType": "Evidence", "variableDefinition": [{"observed": {"display": "Patients randomized to the intervention arm will take a once daily ultra-low-dose quadruple combination therapy (QUARTET LDQT). The LDQT is an overencapsulated combination pill comprising four types of blood pressure lowering medications each at \u00bc standard doses. QUARTET includes candesartan 2mg, amlodipine besylate 1.25mg, indapamide 0.625mg, and bisoprolol 2.5mg. The individual components are currently approved and marketed within the United States.\n\nQUARTET LDQT: Ultra-low-dose combination therapy comprising four different blood pressure lowering drugs at 1/4 dosages. Taken once daily for 12 weeks."}, "description": "QUARTET LDQT", "variableRole": "population"}, {"note": [{"text": "Same as clinicaltrials.gov definition.\n\nA known side effects checklist (included in protocol and consent) was used as a dropdown list for site staff to populate as appropriate at each participant encounter. Any reported side effects from this list were documented as an AE. If an AE did not meet any of these pre-specified terms, the site staff would document 'other' and specify. At specified intervals, a blinded third party MedDRA coder would enter the MedDRA terms into the safety database."}], "observed": {"type": "EvidenceVariable", "reference": "#NCT03640312-OtherAdverseEvent-28"}, "variableRole": "outcome"}]}, {"id": "NCT03640312-OtherAdverseEvent-28-EG001", "meta": {"profile": ["http://hl7.org/fhir/uv/ebm/StructureDefinition/non-comparative-evidence"]}, "name": "NCT03640312_OtherAdverseEvent_28_EG001", "title": "Nasopharyngitis as other adverse event for Candesartan in NCT03640312", "status": "active", "statistic": [{"quantity": {"value": 0.03333333333333333}, "sampleSize": {"knownDataCount": 30}, "statisticType": {"text": "Percentage"}, "numberAffected": 1, "numberOfEvents": 1}], "resourceType": "Evidence", "variableDefinition": [{"observed": {"display": "Patients randomized to the comparison arm will take a once daily 8mg candesartan.\n\nCandesartan: Standard monotherapy of 8mg candesartan. Taken once daily for 12 weeks."}, "description": "Candesartan", "variableRole": "population"}, {"note": [{"text": "Same as clinicaltrials.gov definition.\n\nA known side effects checklist (included in protocol and consent) was used as a dropdown list for site staff to populate as appropriate at each participant encounter. Any reported side effects from this list were documented as an AE. If an AE did not meet any of these pre-specified terms, the site staff would document 'other' and specify. At specified intervals, a blinded third party MedDRA coder would enter the MedDRA terms into the safety database."}], "observed": {"type": "EvidenceVariable", "reference": "#NCT03640312-OtherAdverseEvent-28"}, "variableRole": "outcome"}]}, {"id": "NCT03640312-OtherAdverseEvent-28", "meta": {"profile": ["http://hl7.org/fhir/uv/ebm/StructureDefinition/variable-definition"]}, "note": [{"text": "Cold symptoms, mild, ongoing at study exit, unrelated, no IP action taken"}], "title": "Nasopharyngitis as other adverse event", "status": "active", "timing": {"text": "12 weeks"}, "handling": "boolean", "classifier": [{"text": "Other Adverse Event"}, {"text": "Respiratory, thoracic and mediastinal disorders"}], "definition": {"concept": {"text": "Nasopharyngitis as other adverse event"}}, "resourceType": "EvidenceVariable", "definitionModifier": [{"code": {"text": "Adverse event assessment type"}, "valueCodeableConcept": {"coding": [{"code": "systematic-assessment", "system": "http://hl7.org/fhir/definition-method", "display": "Systematic Assessment"}]}}, {"code": {"text": "Source Vocabulary for Adverse Event Definition"}, "valueCodeableConcept": {"text": "MedDRA 23.0"}}]}, {"id": "NCT03640312-OtherAdverseEvent-29-EG000", "meta": {"profile": ["http://hl7.org/fhir/uv/ebm/StructureDefinition/non-comparative-evidence"]}, "name": "NCT03640312_OtherAdverseEvent_29_EG000", "title": "Cough as other adverse event for QUARTET LDQT in NCT03640312", "status": "active", "statistic": [{"quantity": {"value": 0}, "sampleSize": {"knownDataCount": 32}, "statisticType": {"text": "Percentage"}, "numberAffected": 0, "numberOfEvents": 0}], "resourceType": "Evidence", "variableDefinition": [{"observed": {"display": "Patients randomized to the intervention arm will take a once daily ultra-low-dose quadruple combination therapy (QUARTET LDQT). The LDQT is an overencapsulated combination pill comprising four types of blood pressure lowering medications each at \u00bc standard doses. QUARTET includes candesartan 2mg, amlodipine besylate 1.25mg, indapamide 0.625mg, and bisoprolol 2.5mg. The individual components are currently approved and marketed within the United States.\n\nQUARTET LDQT: Ultra-low-dose combination therapy comprising four different blood pressure lowering drugs at 1/4 dosages. Taken once daily for 12 weeks."}, "description": "QUARTET LDQT", "variableRole": "population"}, {"note": [{"text": "Same as clinicaltrials.gov definition.\n\nA known side effects checklist (included in protocol and consent) was used as a dropdown list for site staff to populate as appropriate at each participant encounter. Any reported side effects from this list were documented as an AE. If an AE did not meet any of these pre-specified terms, the site staff would document 'other' and specify. At specified intervals, a blinded third party MedDRA coder would enter the MedDRA terms into the safety database."}], "observed": {"type": "EvidenceVariable", "reference": "#NCT03640312-OtherAdverseEvent-29"}, "variableRole": "outcome"}]}, {"id": "NCT03640312-OtherAdverseEvent-29-EG001", "meta": {"profile": ["http://hl7.org/fhir/uv/ebm/StructureDefinition/non-comparative-evidence"]}, "name": "NCT03640312_OtherAdverseEvent_29_EG001", "title": "Cough as other adverse event for Candesartan in NCT03640312", "status": "active", "statistic": [{"quantity": {"value": 0.1}, "sampleSize": {"knownDataCount": 30}, "statisticType": {"text": "Percentage"}, "numberAffected": 3, "numberOfEvents": 3}], "resourceType": "Evidence", "variableDefinition": [{"observed": {"display": "Patients randomized to the comparison arm will take a once daily 8mg candesartan.\n\nCandesartan: Standard monotherapy of 8mg candesartan. Taken once daily for 12 weeks."}, "description": "Candesartan", "variableRole": "population"}, {"note": [{"text": "Same as clinicaltrials.gov definition.\n\nA known side effects checklist (included in protocol and consent) was used as a dropdown list for site staff to populate as appropriate at each participant encounter. Any reported side effects from this list were documented as an AE. If an AE did not meet any of these pre-specified terms, the site staff would document 'other' and specify. At specified intervals, a blinded third party MedDRA coder would enter the MedDRA terms into the safety database."}], "observed": {"type": "EvidenceVariable", "reference": "#NCT03640312-OtherAdverseEvent-29"}, "variableRole": "outcome"}]}, {"id": "NCT03640312-OtherAdverseEvent-29", "meta": {"profile": ["http://hl7.org/fhir/uv/ebm/StructureDefinition/variable-definition"]}, "note": [{"text": "3 total mild (3/3), resolved without sequelae (1/3) resolved with sequelae (1/3) ongoing at study exit (1/3), unrelated (2/3) unlikely (1/3), no IP action taken (3/3)"}], "title": "Cough as other adverse event", "status": "active", "timing": {"text": "12 weeks"}, "handling": "boolean", "classifier": [{"text": "Other Adverse Event"}, {"text": "Respiratory, thoracic and mediastinal disorders"}], "definition": {"concept": {"text": "Cough as other adverse event"}}, "resourceType": "EvidenceVariable", "definitionModifier": [{"code": {"text": "Adverse event assessment type"}, "valueCodeableConcept": {"coding": [{"code": "systematic-assessment", "system": "http://hl7.org/fhir/definition-method", "display": "Systematic Assessment"}]}}, {"code": {"text": "Source Vocabulary for Adverse Event Definition"}, "valueCodeableConcept": {"text": "MedDRA 23.0"}}]}, {"id": "NCT03640312-OtherAdverseEvent-30-EG000", "meta": {"profile": ["http://hl7.org/fhir/uv/ebm/StructureDefinition/non-comparative-evidence"]}, "name": "NCT03640312_OtherAdverseEvent_30_EG000", "title": "Dyspnea as other adverse event for QUARTET LDQT in NCT03640312", "status": "active", "statistic": [{"quantity": {"value": 0.09375}, "sampleSize": {"knownDataCount": 32}, "statisticType": {"text": "Percentage"}, "numberAffected": 3, "numberOfEvents": 4}], "resourceType": "Evidence", "variableDefinition": [{"observed": {"display": "Patients randomized to the intervention arm will take a once daily ultra-low-dose quadruple combination therapy (QUARTET LDQT). The LDQT is an overencapsulated combination pill comprising four types of blood pressure lowering medications each at \u00bc standard doses. QUARTET includes candesartan 2mg, amlodipine besylate 1.25mg, indapamide 0.625mg, and bisoprolol 2.5mg. The individual components are currently approved and marketed within the United States.\n\nQUARTET LDQT: Ultra-low-dose combination therapy comprising four different blood pressure lowering drugs at 1/4 dosages. Taken once daily for 12 weeks."}, "description": "QUARTET LDQT", "variableRole": "population"}, {"note": [{"text": "Same as clinicaltrials.gov definition.\n\nA known side effects checklist (included in protocol and consent) was used as a dropdown list for site staff to populate as appropriate at each participant encounter. Any reported side effects from this list were documented as an AE. If an AE did not meet any of these pre-specified terms, the site staff would document 'other' and specify. At specified intervals, a blinded third party MedDRA coder would enter the MedDRA terms into the safety database."}], "observed": {"type": "EvidenceVariable", "reference": "#NCT03640312-OtherAdverseEvent-30"}, "variableRole": "outcome"}]}, {"id": "NCT03640312-OtherAdverseEvent-30-EG001", "meta": {"profile": ["http://hl7.org/fhir/uv/ebm/StructureDefinition/non-comparative-evidence"]}, "name": "NCT03640312_OtherAdverseEvent_30_EG001", "title": "Dyspnea as other adverse event for Candesartan in NCT03640312", "status": "active", "statistic": [{"quantity": {"value": 0.06666666666666667}, "sampleSize": {"knownDataCount": 30}, "statisticType": {"text": "Percentage"}, "numberAffected": 2, "numberOfEvents": 2}], "resourceType": "Evidence", "variableDefinition": [{"observed": {"display": "Patients randomized to the comparison arm will take a once daily 8mg candesartan.\n\nCandesartan: Standard monotherapy of 8mg candesartan. Taken once daily for 12 weeks."}, "description": "Candesartan", "variableRole": "population"}, {"note": [{"text": "Same as clinicaltrials.gov definition.\n\nA known side effects checklist (included in protocol and consent) was used as a dropdown list for site staff to populate as appropriate at each participant encounter. Any reported side effects from this list were documented as an AE. If an AE did not meet any of these pre-specified terms, the site staff would document 'other' and specify. At specified intervals, a blinded third party MedDRA coder would enter the MedDRA terms into the safety database."}], "observed": {"type": "EvidenceVariable", "reference": "#NCT03640312-OtherAdverseEvent-30"}, "variableRole": "outcome"}]}, {"id": "NCT03640312-OtherAdverseEvent-30", "meta": {"profile": ["http://hl7.org/fhir/uv/ebm/StructureDefinition/variable-definition"]}, "note": [{"text": "6 total Breathing problems (6/6), mild (5/6) moderate (1/6), resolved without sequelae (3/6) resolved with sequelae (2/6) ongoing at study exit (1/6), unrelated (4/6) unlikely (2/6), no IP action taken (5/6) temporarily withdrawn (1/6)"}], "title": "Dyspnea as other adverse event", "status": "active", "timing": {"text": "12 weeks"}, "handling": "boolean", "classifier": [{"text": "Other Adverse Event"}, {"text": "Respiratory, thoracic and mediastinal disorders"}], "definition": {"concept": {"text": "Dyspnea as other adverse event"}}, "resourceType": "EvidenceVariable", "definitionModifier": [{"code": {"text": "Adverse event assessment type"}, "valueCodeableConcept": {"coding": [{"code": "systematic-assessment", "system": "http://hl7.org/fhir/definition-method", "display": "Systematic Assessment"}]}}, {"code": {"text": "Source Vocabulary for Adverse Event Definition"}, "valueCodeableConcept": {"text": "MedDRA 23.0"}}]}, {"id": "NCT03640312-OtherAdverseEvent-31-EG000", "meta": {"profile": ["http://hl7.org/fhir/uv/ebm/StructureDefinition/non-comparative-evidence"]}, "name": "NCT03640312_OtherAdverseEvent_31_EG000", "title": "Respiration Abnormal as other adverse event for QUARTET LDQT in NCT03640312", "status": "active", "statistic": [{"quantity": {"value": 0.03125}, "sampleSize": {"knownDataCount": 32}, "statisticType": {"text": "Percentage"}, "numberAffected": 1, "numberOfEvents": 1}], "resourceType": "Evidence", "variableDefinition": [{"observed": {"display": "Patients randomized to the intervention arm will take a once daily ultra-low-dose quadruple combination therapy (QUARTET LDQT). The LDQT is an overencapsulated combination pill comprising four types of blood pressure lowering medications each at \u00bc standard doses. QUARTET includes candesartan 2mg, amlodipine besylate 1.25mg, indapamide 0.625mg, and bisoprolol 2.5mg. The individual components are currently approved and marketed within the United States.\n\nQUARTET LDQT: Ultra-low-dose combination therapy comprising four different blood pressure lowering drugs at 1/4 dosages. Taken once daily for 12 weeks."}, "description": "QUARTET LDQT", "variableRole": "population"}, {"note": [{"text": "Same as clinicaltrials.gov definition.\n\nA known side effects checklist (included in protocol and consent) was used as a dropdown list for site staff to populate as appropriate at each participant encounter. Any reported side effects from this list were documented as an AE. If an AE did not meet any of these pre-specified terms, the site staff would document 'other' and specify. At specified intervals, a blinded third party MedDRA coder would enter the MedDRA terms into the safety database."}], "observed": {"type": "EvidenceVariable", "reference": "#NCT03640312-OtherAdverseEvent-31"}, "variableRole": "outcome"}]}, {"id": "NCT03640312-OtherAdverseEvent-31-EG001", "meta": {"profile": ["http://hl7.org/fhir/uv/ebm/StructureDefinition/non-comparative-evidence"]}, "name": "NCT03640312_OtherAdverseEvent_31_EG001", "title": "Respiration Abnormal as other adverse event for Candesartan in NCT03640312", "status": "active", "statistic": [{"quantity": {"value": 0}, "sampleSize": {"knownDataCount": 30}, "statisticType": {"text": "Percentage"}, "numberAffected": 0, "numberOfEvents": 0}], "resourceType": "Evidence", "variableDefinition": [{"observed": {"display": "Patients randomized to the comparison arm will take a once daily 8mg candesartan.\n\nCandesartan: Standard monotherapy of 8mg candesartan. Taken once daily for 12 weeks."}, "description": "Candesartan", "variableRole": "population"}, {"note": [{"text": "Same as clinicaltrials.gov definition.\n\nA known side effects checklist (included in protocol and consent) was used as a dropdown list for site staff to populate as appropriate at each participant encounter. Any reported side effects from this list were documented as an AE. If an AE did not meet any of these pre-specified terms, the site staff would document 'other' and specify. At specified intervals, a blinded third party MedDRA coder would enter the MedDRA terms into the safety database."}], "observed": {"type": "EvidenceVariable", "reference": "#NCT03640312-OtherAdverseEvent-31"}, "variableRole": "outcome"}]}, {"id": "NCT03640312-OtherAdverseEvent-31", "meta": {"profile": ["http://hl7.org/fhir/uv/ebm/StructureDefinition/variable-definition"]}, "note": [{"text": "Breathing problem, severe, resolved without sequelae, unlikely relatedness, no IP action taken"}], "title": "Respiration Abnormal as other adverse event", "status": "active", "timing": {"text": "12 weeks"}, "handling": "boolean", "classifier": [{"text": "Other Adverse Event"}, {"text": "Respiratory, thoracic and mediastinal disorders"}], "definition": {"concept": {"text": "Respiration Abnormal as other adverse event"}}, "resourceType": "EvidenceVariable", "definitionModifier": [{"code": {"text": "Adverse event assessment type"}, "valueCodeableConcept": {"coding": [{"code": "systematic-assessment", "system": "http://hl7.org/fhir/definition-method", "display": "Systematic Assessment"}]}}, {"code": {"text": "Source Vocabulary for Adverse Event Definition"}, "valueCodeableConcept": {"text": "MedDRA 23.0"}}]}, {"id": "NCT03640312-OtherAdverseEvent-32-EG000", "meta": {"profile": ["http://hl7.org/fhir/uv/ebm/StructureDefinition/non-comparative-evidence"]}, "name": "NCT03640312_OtherAdverseEvent_32_EG000", "title": "Hyperhidrosis as other adverse event for QUARTET LDQT in NCT03640312", "status": "active", "statistic": [{"quantity": {"value": 0.03125}, "sampleSize": {"knownDataCount": 32}, "statisticType": {"text": "Percentage"}, "numberAffected": 1, "numberOfEvents": 1}], "resourceType": "Evidence", "variableDefinition": [{"observed": {"display": "Patients randomized to the intervention arm will take a once daily ultra-low-dose quadruple combination therapy (QUARTET LDQT). The LDQT is an overencapsulated combination pill comprising four types of blood pressure lowering medications each at \u00bc standard doses. QUARTET includes candesartan 2mg, amlodipine besylate 1.25mg, indapamide 0.625mg, and bisoprolol 2.5mg. The individual components are currently approved and marketed within the United States.\n\nQUARTET LDQT: Ultra-low-dose combination therapy comprising four different blood pressure lowering drugs at 1/4 dosages. Taken once daily for 12 weeks."}, "description": "QUARTET LDQT", "variableRole": "population"}, {"note": [{"text": "Same as clinicaltrials.gov definition.\n\nA known side effects checklist (included in protocol and consent) was used as a dropdown list for site staff to populate as appropriate at each participant encounter. Any reported side effects from this list were documented as an AE. If an AE did not meet any of these pre-specified terms, the site staff would document 'other' and specify. At specified intervals, a blinded third party MedDRA coder would enter the MedDRA terms into the safety database."}], "observed": {"type": "EvidenceVariable", "reference": "#NCT03640312-OtherAdverseEvent-32"}, "variableRole": "outcome"}]}, {"id": "NCT03640312-OtherAdverseEvent-32-EG001", "meta": {"profile": ["http://hl7.org/fhir/uv/ebm/StructureDefinition/non-comparative-evidence"]}, "name": "NCT03640312_OtherAdverseEvent_32_EG001", "title": "Hyperhidrosis as other adverse event for Candesartan in NCT03640312", "status": "active", "statistic": [{"quantity": {"value": 0.03333333333333333}, "sampleSize": {"knownDataCount": 30}, "statisticType": {"text": "Percentage"}, "numberAffected": 1, "numberOfEvents": 1}], "resourceType": "Evidence", "variableDefinition": [{"observed": {"display": "Patients randomized to the comparison arm will take a once daily 8mg candesartan.\n\nCandesartan: Standard monotherapy of 8mg candesartan. Taken once daily for 12 weeks."}, "description": "Candesartan", "variableRole": "population"}, {"note": [{"text": "Same as clinicaltrials.gov definition.\n\nA known side effects checklist (included in protocol and consent) was used as a dropdown list for site staff to populate as appropriate at each participant encounter. Any reported side effects from this list were documented as an AE. If an AE did not meet any of these pre-specified terms, the site staff would document 'other' and specify. At specified intervals, a blinded third party MedDRA coder would enter the MedDRA terms into the safety database."}], "observed": {"type": "EvidenceVariable", "reference": "#NCT03640312-OtherAdverseEvent-32"}, "variableRole": "outcome"}]}, {"id": "NCT03640312-OtherAdverseEvent-32", "meta": {"profile": ["http://hl7.org/fhir/uv/ebm/StructureDefinition/variable-definition"]}, "note": [{"text": "2 total Sweating (2/2), mild (2/2), resolved without sequelae (2/2), unrealted (2/2), no IP action taken (1/2) permanently discontinued (1/2)"}], "title": "Hyperhidrosis as other adverse event", "status": "active", "timing": {"text": "12 weeks"}, "handling": "boolean", "classifier": [{"text": "Other Adverse Event"}, {"text": "Skin and subcutaneous tissue disorders"}], "definition": {"concept": {"text": "Hyperhidrosis as other adverse event"}}, "resourceType": "EvidenceVariable", "definitionModifier": [{"code": {"text": "Adverse event assessment type"}, "valueCodeableConcept": {"coding": [{"code": "systematic-assessment", "system": "http://hl7.org/fhir/definition-method", "display": "Systematic Assessment"}]}}, {"code": {"text": "Source Vocabulary for Adverse Event Definition"}, "valueCodeableConcept": {"text": "MedDRA 23.0"}}]}, {"id": "NCT03640312-OtherAdverseEvent-33-EG000", "meta": {"profile": ["http://hl7.org/fhir/uv/ebm/StructureDefinition/non-comparative-evidence"]}, "name": "NCT03640312_OtherAdverseEvent_33_EG000", "title": "Rash as other adverse event for QUARTET LDQT in NCT03640312", "status": "active", "statistic": [{"quantity": {"value": 0.03125}, "sampleSize": {"knownDataCount": 32}, "statisticType": {"text": "Percentage"}, "numberAffected": 1, "numberOfEvents": 1}], "resourceType": "Evidence", "variableDefinition": [{"observed": {"display": "Patients randomized to the intervention arm will take a once daily ultra-low-dose quadruple combination therapy (QUARTET LDQT). The LDQT is an overencapsulated combination pill comprising four types of blood pressure lowering medications each at \u00bc standard doses. QUARTET includes candesartan 2mg, amlodipine besylate 1.25mg, indapamide 0.625mg, and bisoprolol 2.5mg. The individual components are currently approved and marketed within the United States.\n\nQUARTET LDQT: Ultra-low-dose combination therapy comprising four different blood pressure lowering drugs at 1/4 dosages. Taken once daily for 12 weeks."}, "description": "QUARTET LDQT", "variableRole": "population"}, {"note": [{"text": "Same as clinicaltrials.gov definition.\n\nA known side effects checklist (included in protocol and consent) was used as a dropdown list for site staff to populate as appropriate at each participant encounter. Any reported side effects from this list were documented as an AE. If an AE did not meet any of these pre-specified terms, the site staff would document 'other' and specify. At specified intervals, a blinded third party MedDRA coder would enter the MedDRA terms into the safety database."}], "observed": {"type": "EvidenceVariable", "reference": "#NCT03640312-OtherAdverseEvent-33"}, "variableRole": "outcome"}]}, {"id": "NCT03640312-OtherAdverseEvent-33-EG001", "meta": {"profile": ["http://hl7.org/fhir/uv/ebm/StructureDefinition/non-comparative-evidence"]}, "name": "NCT03640312_OtherAdverseEvent_33_EG001", "title": "Rash as other adverse event for Candesartan in NCT03640312", "status": "active", "statistic": [{"quantity": {"value": 0}, "sampleSize": {"knownDataCount": 30}, "statisticType": {"text": "Percentage"}, "numberAffected": 0, "numberOfEvents": 0}], "resourceType": "Evidence", "variableDefinition": [{"observed": {"display": "Patients randomized to the comparison arm will take a once daily 8mg candesartan.\n\nCandesartan: Standard monotherapy of 8mg candesartan. Taken once daily for 12 weeks."}, "description": "Candesartan", "variableRole": "population"}, {"note": [{"text": "Same as clinicaltrials.gov definition.\n\nA known side effects checklist (included in protocol and consent) was used as a dropdown list for site staff to populate as appropriate at each participant encounter. Any reported side effects from this list were documented as an AE. If an AE did not meet any of these pre-specified terms, the site staff would document 'other' and specify. At specified intervals, a blinded third party MedDRA coder would enter the MedDRA terms into the safety database."}], "observed": {"type": "EvidenceVariable", "reference": "#NCT03640312-OtherAdverseEvent-33"}, "variableRole": "outcome"}]}, {"id": "NCT03640312-OtherAdverseEvent-33", "meta": {"profile": ["http://hl7.org/fhir/uv/ebm/StructureDefinition/variable-definition"]}, "note": [{"text": "Rash, mild, resolved without sequelae, unlikely relatedness, no IP action taken"}], "title": "Rash as other adverse event", "status": "active", "timing": {"text": "12 weeks"}, "handling": "boolean", "classifier": [{"text": "Other Adverse Event"}, {"text": "Skin and subcutaneous tissue disorders"}], "definition": {"concept": {"text": "Rash as other adverse event"}}, "resourceType": "EvidenceVariable", "definitionModifier": [{"code": {"text": "Adverse event assessment type"}, "valueCodeableConcept": {"coding": [{"code": "systematic-assessment", "system": "http://hl7.org/fhir/definition-method", "display": "Systematic Assessment"}]}}, {"code": {"text": "Source Vocabulary for Adverse Event Definition"}, "valueCodeableConcept": {"text": "MedDRA 23.0"}}]}, {"id": "NCT03640312-OtherAdverseEvent-34-EG000", "meta": {"profile": ["http://hl7.org/fhir/uv/ebm/StructureDefinition/non-comparative-evidence"]}, "name": "NCT03640312_OtherAdverseEvent_34_EG000", "title": "Dizziness as other adverse event for QUARTET LDQT in NCT03640312", "status": "active", "statistic": [{"quantity": {"value": 0.125}, "sampleSize": {"knownDataCount": 32}, "statisticType": {"text": "Percentage"}, "numberAffected": 4, "numberOfEvents": 4}], "resourceType": "Evidence", "variableDefinition": [{"observed": {"display": "Patients randomized to the intervention arm will take a once daily ultra-low-dose quadruple combination therapy (QUARTET LDQT). The LDQT is an overencapsulated combination pill comprising four types of blood pressure lowering medications each at \u00bc standard doses. QUARTET includes candesartan 2mg, amlodipine besylate 1.25mg, indapamide 0.625mg, and bisoprolol 2.5mg. The individual components are currently approved and marketed within the United States.\n\nQUARTET LDQT: Ultra-low-dose combination therapy comprising four different blood pressure lowering drugs at 1/4 dosages. Taken once daily for 12 weeks."}, "description": "QUARTET LDQT", "variableRole": "population"}, {"note": [{"text": "Same as clinicaltrials.gov definition.\n\nA known side effects checklist (included in protocol and consent) was used as a dropdown list for site staff to populate as appropriate at each participant encounter. Any reported side effects from this list were documented as an AE. If an AE did not meet any of these pre-specified terms, the site staff would document 'other' and specify. At specified intervals, a blinded third party MedDRA coder would enter the MedDRA terms into the safety database."}], "observed": {"type": "EvidenceVariable", "reference": "#NCT03640312-OtherAdverseEvent-34"}, "variableRole": "outcome"}]}, {"id": "NCT03640312-OtherAdverseEvent-34-EG001", "meta": {"profile": ["http://hl7.org/fhir/uv/ebm/StructureDefinition/non-comparative-evidence"]}, "name": "NCT03640312_OtherAdverseEvent_34_EG001", "title": "Dizziness as other adverse event for Candesartan in NCT03640312", "status": "active", "statistic": [{"quantity": {"value": 0.03333333333333333}, "sampleSize": {"knownDataCount": 30}, "statisticType": {"text": "Percentage"}, "numberAffected": 1, "numberOfEvents": 1}], "resourceType": "Evidence", "variableDefinition": [{"observed": {"display": "Patients randomized to the comparison arm will take a once daily 8mg candesartan.\n\nCandesartan: Standard monotherapy of 8mg candesartan. Taken once daily for 12 weeks."}, "description": "Candesartan", "variableRole": "population"}, {"note": [{"text": "Same as clinicaltrials.gov definition.\n\nA known side effects checklist (included in protocol and consent) was used as a dropdown list for site staff to populate as appropriate at each participant encounter. Any reported side effects from this list were documented as an AE. If an AE did not meet any of these pre-specified terms, the site staff would document 'other' and specify. At specified intervals, a blinded third party MedDRA coder would enter the MedDRA terms into the safety database."}], "observed": {"type": "EvidenceVariable", "reference": "#NCT03640312-OtherAdverseEvent-34"}, "variableRole": "outcome"}]}, {"id": "NCT03640312-OtherAdverseEvent-34", "meta": {"profile": ["http://hl7.org/fhir/uv/ebm/StructureDefinition/variable-definition"]}, "note": [{"text": "5 total Feeling faint/lightheadedness/falling (5/5), mild (4/5) moderate (1/5), resolved without sequelae (5/5), unlikely relatedness (2/5) possible (3/5), no IP action taken (5/5)"}], "title": "Dizziness as other adverse event", "status": "active", "timing": {"text": "12 weeks"}, "handling": "boolean", "classifier": [{"text": "Other Adverse Event"}, {"text": "Vascular disorders"}], "definition": {"concept": {"text": "Dizziness as other adverse event"}}, "resourceType": "EvidenceVariable", "definitionModifier": [{"code": {"text": "Adverse event assessment type"}, "valueCodeableConcept": {"coding": [{"code": "systematic-assessment", "system": "http://hl7.org/fhir/definition-method", "display": "Systematic Assessment"}]}}, {"code": {"text": "Source Vocabulary for Adverse Event Definition"}, "valueCodeableConcept": {"text": "MedDRA 23.0"}}]}], "custodian": {"type": "Organization", "display": "Computable Publishing LLC", "reference": "Organization/118079"}, "extension": [{"url": "http://hl7.org/fhir/uv/ebm/StructureDefinition/artifact-publication-status", "valueCodeableConcept": {"coding": [{"code": "active", "system": "http://terminology.hl7.org/CodeSystem/cited-artifact-status-type", "display": "Active"}]}}], "relatesTo": [{"type": "cite-as", "targetMarkdown": "Adverse Events Report for NCT03640312 [Database Entry: FHIR Composition Resource]. Contributors: [No author listed.] [Authors/Creators]. In: Fast Evidence Interoperability Resources (FEvIR) Platform, FOI 370505. Revised 2025-08-18. Available at: https://fevir.net/resources/Composition/370505. Computable resource at: https://fevir.net/resources/Composition/370505."}], "identifier": [{"type": {"text": "FEvIR Object Identifier", "coding": [{"system": "http://terminology.hl7.org/CodeSystem/v2-0203", "code": "ACSN", "display": "Accession ID"}]}, "value": "370505", "system": "https://fevir.net/FOI", "assigner": {"display": "Computable Publishing LLC"}}, {"type": {"text": "FEvIR Linking Identifier"}, "value": "NCT03640312-adverse-events-report", "system": "https://fevir.net/FLI", "assigner": {"display": "Computable Publishing LLC"}}], "resourceType": "Composition", "section": [{"code": {"text": "EventsFrequencyThreshold"}, "text": {"div": "<div xmlns=\"http://www.w3.org/1999/xhtml\">0%</div>", "status": "generated"}, "title": "Events Frequency Threshold"}, {"code": {"text": "EventsTimeFrame"}, "text": {"div": "<div xmlns=\"http://www.w3.org/1999/xhtml\">12 weeks</div>", "status": "generated"}, "title": "Events Time Frame"}, {"code": {"text": "EventsDescription"}, "text": {"div": "<div xmlns=\"http://www.w3.org/1999/xhtml\">Same as clinicaltrials.gov definition.\n\nA known side effects checklist (included in protocol and consent) was used as a dropdown list for site staff to populate as appropriate at each participant encounter. Any reported side effects from this list were documented as an AE. If an AE did not meet any of these pre-specified terms, the site staff would document 'other' and specify. At specified intervals, a blinded third party MedDRA coder would enter the MedDRA terms into the safety database.</div>", "status": "generated"}, "title": "Events Description"}, {"code": {"text": "EG000 QUARTET LDQT"}, "title": "QUARTET LDQT", "section": [{"code": {"text": "EventGroupDescription"}, "text": {"div": "<div xmlns=\"http://www.w3.org/1999/xhtml\">Patients randomized to the intervention arm will take a once daily ultra-low-dose quadruple combination therapy (QUARTET LDQT). The LDQT is an overencapsulated combination pill comprising four types of blood pressure lowering medications each at \u00bc standard doses. QUARTET includes candesartan 2mg, amlodipine besylate 1.25mg, indapamide 0.625mg, and bisoprolol 2.5mg. The individual components are currently approved and marketed within the United States.\n\nQUARTET LDQT: Ultra-low-dose combination therapy comprising four different blood pressure lowering drugs at 1/4 dosages. Taken once daily for 12 weeks.</div>", "status": "generated"}, "title": "Event Group Description"}]}, {"code": {"text": "EG001 Candesartan"}, "title": "Candesartan", "section": [{"code": {"text": "EventGroupDescription"}, "text": {"div": "<div xmlns=\"http://www.w3.org/1999/xhtml\">Patients randomized to the comparison arm will take a once daily 8mg candesartan.\n\nCandesartan: Standard monotherapy of 8mg candesartan. Taken once daily for 12 weeks.</div>", "status": "generated"}, "title": "Event Group Description"}]}, {"code": {"text": "Total Mortality", "coding": [{"code": "results", "system": "https://fevir.net/resources/CodeSystem/179423", "display": "Results"}]}, "entry": [{"type": "Evidence", "display": "All-cause mortality for QUARTET LDQT in NCT03640312", "reference": "#NCT03640312-AllCauseMortality-EG000"}, {"type": "Evidence", "display": "All-cause mortality for Candesartan in NCT03640312", "reference": "#NCT03640312-AllCauseMortality-EG001"}], "focus": {"type": "EvidenceVariable", "display": "All-cause mortality (timeframe for NCT03640312)", "reference": "#NCT03640312-AllCauseMortality"}, "title": "Total Mortality"}, {"code": {"text": "Total Serious Events", "coding": [{"code": "results", "system": "https://fevir.net/resources/CodeSystem/179423", "display": "Results"}]}, "entry": [{"type": "Evidence", "display": "Serious Adverse Events for QUARTET LDQT in NCT03640312", "reference": "#NCT03640312-SeriousAdverseEvents-EG000"}, {"type": "Evidence", "display": "Serious Adverse Events for Candesartan in NCT03640312", "reference": "#NCT03640312-SeriousAdverseEvents-EG001"}], "focus": {"type": "EvidenceVariable", "display": "Serious Adverse Events (timeframe for NCT03640312)", "reference": "#NCT03640312-SeriousAdverseEvents"}, "title": "Total Serious Events"}, {"code": {"text": "Total Other Events", "coding": [{"code": "results", "system": "https://fevir.net/resources/CodeSystem/179423", "display": "Results"}]}, "entry": [{"type": "Evidence", "display": "Other Adverse Events for QUARTET LDQT in NCT03640312", "reference": "#NCT03640312-OtherAdverseEvents-EG000"}, {"type": "Evidence", "display": "Other Adverse Events for Candesartan in NCT03640312", "reference": "#NCT03640312-OtherAdverseEvents-EG001"}], "focus": {"type": "EvidenceVariable", "display": "Other Adverse Events (timeframe for NCT03640312)", "reference": "#NCT03640312-OtherAdverseEvents"}, "title": "Total Other Events"}, {"code": {"text": "SeriousEventList"}, "title": "Serious Event List", "section": [{"code": {"coding": [{"code": "results", "system": "https://fevir.net/resources/CodeSystem/179423", "display": "Results"}]}, "entry": [{"type": "Evidence", "display": "Road Traffic Accident as serious adverse event for QUARTET LDQT in NCT03640312", "reference": "#NCT03640312-SeriousAdverseEvent-0-EG000"}, {"type": "Evidence", "display": "Road Traffic Accident as serious adverse event for Candesartan in NCT03640312", "reference": "#NCT03640312-SeriousAdverseEvent-0-EG001"}], "focus": {"type": "EvidenceVariable", "display": "Road Traffic Accident as serious adverse event", "reference": "#NCT03640312-SeriousAdverseEvent-0"}, "title": "Road Traffic Accident"}, {"code": {"coding": [{"code": "results", "system": "https://fevir.net/resources/CodeSystem/179423", "display": "Results"}]}, "entry": [{"type": "Evidence", "display": "Chest Pain as serious adverse event for QUARTET LDQT in NCT03640312", "reference": "#NCT03640312-SeriousAdverseEvent-1-EG000"}, {"type": "Evidence", "display": "Chest Pain as serious adverse event for Candesartan in NCT03640312", "reference": "#NCT03640312-SeriousAdverseEvent-1-EG001"}], "focus": {"type": "EvidenceVariable", "display": "Chest Pain as serious adverse event", "reference": "#NCT03640312-SeriousAdverseEvent-1"}, "title": "Chest Pain"}]}, {"code": {"text": "OtherEventList"}, "title": "Other Event List", "section": [{"code": {"coding": [{"code": "results", "system": "https://fevir.net/resources/CodeSystem/179423", "display": "Results"}]}, "entry": [{"type": "Evidence", "display": "Vision blurred as other adverse event for QUARTET LDQT in NCT03640312", "reference": "#NCT03640312-OtherAdverseEvent-0-EG000"}, {"type": "Evidence", "display": "Vision blurred as other adverse event for Candesartan in NCT03640312", "reference": "#NCT03640312-OtherAdverseEvent-0-EG001"}], "focus": {"type": "EvidenceVariable", "display": "Vision blurred as other adverse event", "reference": "#NCT03640312-OtherAdverseEvent-0"}, "title": "Vision blurred"}, {"code": {"coding": [{"code": "results", "system": "https://fevir.net/resources/CodeSystem/179423", "display": "Results"}]}, "entry": [{"type": "Evidence", "display": "Palpitations as other adverse event for QUARTET LDQT in NCT03640312", "reference": "#NCT03640312-OtherAdverseEvent-1-EG000"}, {"type": "Evidence", "display": "Palpitations as other adverse event for Candesartan in NCT03640312", "reference": "#NCT03640312-OtherAdverseEvent-1-EG001"}], "focus": {"type": "EvidenceVariable", "display": "Palpitations as other adverse event", "reference": "#NCT03640312-OtherAdverseEvent-1"}, "title": "Palpitations"}, {"code": {"coding": [{"code": "results", "system": "https://fevir.net/resources/CodeSystem/179423", "display": "Results"}]}, "entry": [{"type": "Evidence", "display": "Tinnitus as other adverse event for QUARTET LDQT in NCT03640312", "reference": "#NCT03640312-OtherAdverseEvent-2-EG000"}, {"type": "Evidence", "display": "Tinnitus as other adverse event for Candesartan in NCT03640312", "reference": "#NCT03640312-OtherAdverseEvent-2-EG001"}], "focus": {"type": "EvidenceVariable", "display": "Tinnitus as other adverse event", "reference": "#NCT03640312-OtherAdverseEvent-2"}, "title": "Tinnitus"}, {"code": {"coding": [{"code": "results", "system": "https://fevir.net/resources/CodeSystem/179423", "display": "Results"}]}, "entry": [{"type": "Evidence", "display": "Eye pruritis as other adverse event for QUARTET LDQT in NCT03640312", "reference": "#NCT03640312-OtherAdverseEvent-3-EG000"}, {"type": "Evidence", "display": "Eye pruritis as other adverse event for Candesartan in NCT03640312", "reference": "#NCT03640312-OtherAdverseEvent-3-EG001"}], "focus": {"type": "EvidenceVariable", "display": "Eye pruritis as other adverse event", "reference": "#NCT03640312-OtherAdverseEvent-3"}, "title": "Eye pruritis"}, {"code": {"coding": [{"code": "results", "system": "https://fevir.net/resources/CodeSystem/179423", "display": "Results"}]}, "entry": [{"type": "Evidence", "display": "Diarrhea as other adverse event for QUARTET LDQT in NCT03640312", "reference": "#NCT03640312-OtherAdverseEvent-4-EG000"}, {"type": "Evidence", "display": "Diarrhea as other adverse event for Candesartan in NCT03640312", "reference": "#NCT03640312-OtherAdverseEvent-4-EG001"}], "focus": {"type": "EvidenceVariable", "display": "Diarrhea as other adverse event", "reference": "#NCT03640312-OtherAdverseEvent-4"}, "title": "Diarrhea"}, {"code": {"coding": [{"code": "results", "system": "https://fevir.net/resources/CodeSystem/179423", "display": "Results"}]}, "entry": [{"type": "Evidence", "display": "Abdominal pain upper as other adverse event for QUARTET LDQT in NCT03640312", "reference": "#NCT03640312-OtherAdverseEvent-5-EG000"}, {"type": "Evidence", "display": "Abdominal pain upper as other adverse event for Candesartan in NCT03640312", "reference": "#NCT03640312-OtherAdverseEvent-5-EG001"}], "focus": {"type": "EvidenceVariable", "display": "Abdominal pain upper as other adverse event", "reference": "#NCT03640312-OtherAdverseEvent-5"}, "title": "Abdominal pain upper"}, {"code": {"coding": [{"code": "results", "system": "https://fevir.net/resources/CodeSystem/179423", "display": "Results"}]}, "entry": [{"type": "Evidence", "display": "Dry Mouth as other adverse event for QUARTET LDQT in NCT03640312", "reference": "#NCT03640312-OtherAdverseEvent-6-EG000"}, {"type": "Evidence", "display": "Dry Mouth as other adverse event for Candesartan in NCT03640312", "reference": "#NCT03640312-OtherAdverseEvent-6-EG001"}], "focus": {"type": "EvidenceVariable", "display": "Dry Mouth as other adverse event", "reference": "#NCT03640312-OtherAdverseEvent-6"}, "title": "Dry Mouth"}, {"code": {"coding": [{"code": "results", "system": "https://fevir.net/resources/CodeSystem/179423", "display": "Results"}]}, "entry": [{"type": "Evidence", "display": "Constipation as other adverse event for QUARTET LDQT in NCT03640312", "reference": "#NCT03640312-OtherAdverseEvent-7-EG000"}, {"type": "Evidence", "display": "Constipation as other adverse event for Candesartan in NCT03640312", "reference": "#NCT03640312-OtherAdverseEvent-7-EG001"}], "focus": {"type": "EvidenceVariable", "display": "Constipation as other adverse event", "reference": "#NCT03640312-OtherAdverseEvent-7"}, "title": "Constipation"}, {"code": {"coding": [{"code": "results", "system": "https://fevir.net/resources/CodeSystem/179423", "display": "Results"}]}, "entry": [{"type": "Evidence", "display": "Throat irritation as other adverse event for QUARTET LDQT in NCT03640312", "reference": "#NCT03640312-OtherAdverseEvent-8-EG000"}, {"type": "Evidence", "display": "Throat irritation as other adverse event for Candesartan in NCT03640312", "reference": "#NCT03640312-OtherAdverseEvent-8-EG001"}], "focus": {"type": "EvidenceVariable", "display": "Throat irritation as other adverse event", "reference": "#NCT03640312-OtherAdverseEvent-8"}, "title": "Throat irritation"}, {"code": {"coding": [{"code": "results", "system": "https://fevir.net/resources/CodeSystem/179423", "display": "Results"}]}, "entry": [{"type": "Evidence", "display": "Nausea as other adverse event for QUARTET LDQT in NCT03640312", "reference": "#NCT03640312-OtherAdverseEvent-9-EG000"}, {"type": "Evidence", "display": "Nausea as other adverse event for Candesartan in NCT03640312", "reference": "#NCT03640312-OtherAdverseEvent-9-EG001"}], "focus": {"type": "EvidenceVariable", "display": "Nausea as other adverse event", "reference": "#NCT03640312-OtherAdverseEvent-9"}, "title": "Nausea"}, {"code": {"coding": [{"code": "results", "system": "https://fevir.net/resources/CodeSystem/179423", "display": "Results"}]}, "entry": [{"type": "Evidence", "display": "Dry throat as other adverse event for QUARTET LDQT in NCT03640312", "reference": "#NCT03640312-OtherAdverseEvent-10-EG000"}, {"type": "Evidence", "display": "Dry throat as other adverse event for Candesartan in NCT03640312", "reference": "#NCT03640312-OtherAdverseEvent-10-EG001"}], "focus": {"type": "EvidenceVariable", "display": "Dry throat as other adverse event", "reference": "#NCT03640312-OtherAdverseEvent-10"}, "title": "Dry throat"}, {"code": {"coding": [{"code": "results", "system": "https://fevir.net/resources/CodeSystem/179423", "display": "Results"}]}, "entry": [{"type": "Evidence", "display": "Vomiting as other adverse event for QUARTET LDQT in NCT03640312", "reference": "#NCT03640312-OtherAdverseEvent-11-EG000"}, {"type": "Evidence", "display": "Vomiting as other adverse event for Candesartan in NCT03640312", "reference": "#NCT03640312-OtherAdverseEvent-11-EG001"}], "focus": {"type": "EvidenceVariable", "display": "Vomiting as other adverse event", "reference": "#NCT03640312-OtherAdverseEvent-11"}, "title": "Vomiting"}, {"code": {"coding": [{"code": "results", "system": "https://fevir.net/resources/CodeSystem/179423", "display": "Results"}]}, "entry": [{"type": "Evidence", "display": "Feeling Hot as other adverse event for QUARTET LDQT in NCT03640312", "reference": "#NCT03640312-OtherAdverseEvent-12-EG000"}, {"type": "Evidence", "display": "Feeling Hot as other adverse event for Candesartan in NCT03640312", "reference": "#NCT03640312-OtherAdverseEvent-12-EG001"}], "focus": {"type": "EvidenceVariable", "display": "Feeling Hot as other adverse event", "reference": "#NCT03640312-OtherAdverseEvent-12"}, "title": "Feeling Hot"}, {"code": {"coding": [{"code": "results", "system": "https://fevir.net/resources/CodeSystem/179423", "display": "Results"}]}, "entry": [{"type": "Evidence", "display": "Influenza like illness as other adverse event for QUARTET LDQT in NCT03640312", "reference": "#NCT03640312-OtherAdverseEvent-13-EG000"}, {"type": "Evidence", "display": "Influenza like illness as other adverse event for Candesartan in NCT03640312", "reference": "#NCT03640312-OtherAdverseEvent-13-EG001"}], "focus": {"type": "EvidenceVariable", "display": "Influenza like illness as other adverse event", "reference": "#NCT03640312-OtherAdverseEvent-13"}, "title": "Influenza like illness"}, {"code": {"coding": [{"code": "results", "system": "https://fevir.net/resources/CodeSystem/179423", "display": "Results"}]}, "entry": [{"type": "Evidence", "display": "Fatigue as other adverse event for QUARTET LDQT in NCT03640312", "reference": "#NCT03640312-OtherAdverseEvent-14-EG000"}, {"type": "Evidence", "display": "Fatigue as other adverse event for Candesartan in NCT03640312", "reference": "#NCT03640312-OtherAdverseEvent-14-EG001"}], "focus": {"type": "EvidenceVariable", "display": "Fatigue as other adverse event", "reference": "#NCT03640312-OtherAdverseEvent-14"}, "title": "Fatigue"}, {"code": {"coding": [{"code": "results", "system": "https://fevir.net/resources/CodeSystem/179423", "display": "Results"}]}, "entry": [{"type": "Evidence", "display": "Peripheral swelling as other adverse event for QUARTET LDQT in NCT03640312", "reference": "#NCT03640312-OtherAdverseEvent-15-EG000"}, {"type": "Evidence", "display": "Peripheral swelling as other adverse event for Candesartan in NCT03640312", "reference": "#NCT03640312-OtherAdverseEvent-15-EG001"}], "focus": {"type": "EvidenceVariable", "display": "Peripheral swelling as other adverse event", "reference": "#NCT03640312-OtherAdverseEvent-15"}, "title": "Peripheral swelling"}, {"code": {"coding": [{"code": "results", "system": "https://fevir.net/resources/CodeSystem/179423", "display": "Results"}]}, "entry": [{"type": "Evidence", "display": "Chest Pain as other adverse event for QUARTET LDQT in NCT03640312", "reference": "#NCT03640312-OtherAdverseEvent-16-EG000"}, {"type": "Evidence", "display": "Chest Pain as other adverse event for Candesartan in NCT03640312", "reference": "#NCT03640312-OtherAdverseEvent-16-EG001"}], "focus": {"type": "EvidenceVariable", "display": "Chest Pain as other adverse event", "reference": "#NCT03640312-OtherAdverseEvent-16"}, "title": "Chest Pain"}, {"code": {"coding": [{"code": "results", "system": "https://fevir.net/resources/CodeSystem/179423", "display": "Results"}]}, "entry": [{"type": "Evidence", "display": "Asthenia as other adverse event for QUARTET LDQT in NCT03640312", "reference": "#NCT03640312-OtherAdverseEvent-17-EG000"}, {"type": "Evidence", "display": "Asthenia as other adverse event for Candesartan in NCT03640312", "reference": "#NCT03640312-OtherAdverseEvent-17-EG001"}], "focus": {"type": "EvidenceVariable", "display": "Asthenia as other adverse event", "reference": "#NCT03640312-OtherAdverseEvent-17"}, "title": "Asthenia"}, {"code": {"coding": [{"code": "results", "system": "https://fevir.net/resources/CodeSystem/179423", "display": "Results"}]}, "entry": [{"type": "Evidence", "display": "Pain as other adverse event for QUARTET LDQT in NCT03640312", "reference": "#NCT03640312-OtherAdverseEvent-18-EG000"}, {"type": "Evidence", "display": "Pain as other adverse event for Candesartan in NCT03640312", "reference": "#NCT03640312-OtherAdverseEvent-18-EG001"}], "focus": {"type": "EvidenceVariable", "display": "Pain as other adverse event", "reference": "#NCT03640312-OtherAdverseEvent-18"}, "title": "Pain"}, {"code": {"coding": [{"code": "results", "system": "https://fevir.net/resources/CodeSystem/179423", "display": "Results"}]}, "entry": [{"type": "Evidence", "display": "Blood glucose increased as other adverse event for QUARTET LDQT in NCT03640312", "reference": "#NCT03640312-OtherAdverseEvent-19-EG000"}, {"type": "Evidence", "display": "Blood glucose increased as other adverse event for Candesartan in NCT03640312", "reference": "#NCT03640312-OtherAdverseEvent-19-EG001"}], "focus": {"type": "EvidenceVariable", "display": "Blood glucose increased as other adverse event", "reference": "#NCT03640312-OtherAdverseEvent-19"}, "title": "Blood glucose increased"}, {"code": {"coding": [{"code": "results", "system": "https://fevir.net/resources/CodeSystem/179423", "display": "Results"}]}, "entry": [{"type": "Evidence", "display": "Heart rate irregular as other adverse event for QUARTET LDQT in NCT03640312", "reference": "#NCT03640312-OtherAdverseEvent-20-EG000"}, {"type": "Evidence", "display": "Heart rate irregular as other adverse event for Candesartan in NCT03640312", "reference": "#NCT03640312-OtherAdverseEvent-20-EG001"}], "focus": {"type": "EvidenceVariable", "display": "Heart rate irregular as other adverse event", "reference": "#NCT03640312-OtherAdverseEvent-20"}, "title": "Heart rate irregular"}, {"code": {"coding": [{"code": "results", "system": "https://fevir.net/resources/CodeSystem/179423", "display": "Results"}]}, "entry": [{"type": "Evidence", "display": "Back pain as other adverse event for QUARTET LDQT in NCT03640312", "reference": "#NCT03640312-OtherAdverseEvent-21-EG000"}, {"type": "Evidence", "display": "Back pain as other adverse event for Candesartan in NCT03640312", "reference": "#NCT03640312-OtherAdverseEvent-21-EG001"}], "focus": {"type": "EvidenceVariable", "display": "Back pain as other adverse event", "reference": "#NCT03640312-OtherAdverseEvent-21"}, "title": "Back pain"}, {"code": {"coding": [{"code": "results", "system": "https://fevir.net/resources/CodeSystem/179423", "display": "Results"}]}, "entry": [{"type": "Evidence", "display": "Muscle cramps/spasms as other adverse event for QUARTET LDQT in NCT03640312", "reference": "#NCT03640312-OtherAdverseEvent-22-EG000"}, {"type": "Evidence", "display": "Muscle cramps/spasms as other adverse event for Candesartan in NCT03640312", "reference": "#NCT03640312-OtherAdverseEvent-22-EG001"}], "focus": {"type": "EvidenceVariable", "display": "Muscle cramps/spasms as other adverse event", "reference": "#NCT03640312-OtherAdverseEvent-22"}, "title": "Muscle cramps/spasms"}, {"code": {"coding": [{"code": "results", "system": "https://fevir.net/resources/CodeSystem/179423", "display": "Results"}]}, "entry": [{"type": "Evidence", "display": "Headache as other adverse event for QUARTET LDQT in NCT03640312", "reference": "#NCT03640312-OtherAdverseEvent-23-EG000"}, {"type": "Evidence", "display": "Headache as other adverse event for Candesartan in NCT03640312", "reference": "#NCT03640312-OtherAdverseEvent-23-EG001"}], "focus": {"type": "EvidenceVariable", "display": "Headache as other adverse event", "reference": "#NCT03640312-OtherAdverseEvent-23"}, "title": "Headache"}, {"code": {"coding": [{"code": "results", "system": "https://fevir.net/resources/CodeSystem/179423", "display": "Results"}]}, "entry": [{"type": "Evidence", "display": "Dizziness as other adverse event for QUARTET LDQT in NCT03640312", "reference": "#NCT03640312-OtherAdverseEvent-24-EG000"}, {"type": "Evidence", "display": "Dizziness as other adverse event for Candesartan in NCT03640312", "reference": "#NCT03640312-OtherAdverseEvent-24-EG001"}], "focus": {"type": "EvidenceVariable", "display": "Dizziness as other adverse event", "reference": "#NCT03640312-OtherAdverseEvent-24"}, "title": "Dizziness"}, {"code": {"coding": [{"code": "results", "system": "https://fevir.net/resources/CodeSystem/179423", "display": "Results"}]}, "entry": [{"type": "Evidence", "display": "Vision blurred as other adverse event for QUARTET LDQT in NCT03640312", "reference": "#NCT03640312-OtherAdverseEvent-25-EG000"}, {"type": "Evidence", "display": "Vision blurred as other adverse event for Candesartan in NCT03640312", "reference": "#NCT03640312-OtherAdverseEvent-25-EG001"}], "focus": {"type": "EvidenceVariable", "display": "Vision blurred as other adverse event", "reference": "#NCT03640312-OtherAdverseEvent-25"}, "title": "Vision blurred"}, {"code": {"coding": [{"code": "results", "system": "https://fevir.net/resources/CodeSystem/179423", "display": "Results"}]}, "entry": [{"type": "Evidence", "display": "Hypoaesthesia as other adverse event for QUARTET LDQT in NCT03640312", "reference": "#NCT03640312-OtherAdverseEvent-26-EG000"}, {"type": "Evidence", "display": "Hypoaesthesia as other adverse event for Candesartan in NCT03640312", "reference": "#NCT03640312-OtherAdverseEvent-26-EG001"}], "focus": {"type": "EvidenceVariable", "display": "Hypoaesthesia as other adverse event", "reference": "#NCT03640312-OtherAdverseEvent-26"}, "title": "Hypoaesthesia"}, {"code": {"coding": [{"code": "results", "system": "https://fevir.net/resources/CodeSystem/179423", "display": "Results"}]}, "entry": [{"type": "Evidence", "display": "Anxiety as other adverse event for QUARTET LDQT in NCT03640312", "reference": "#NCT03640312-OtherAdverseEvent-27-EG000"}, {"type": "Evidence", "display": "Anxiety as other adverse event for Candesartan in NCT03640312", "reference": "#NCT03640312-OtherAdverseEvent-27-EG001"}], "focus": {"type": "EvidenceVariable", "display": "Anxiety as other adverse event", "reference": "#NCT03640312-OtherAdverseEvent-27"}, "title": "Anxiety"}, {"code": {"coding": [{"code": "results", "system": "https://fevir.net/resources/CodeSystem/179423", "display": "Results"}]}, "entry": [{"type": "Evidence", "display": "Nasopharyngitis as other adverse event for QUARTET LDQT in NCT03640312", "reference": "#NCT03640312-OtherAdverseEvent-28-EG000"}, {"type": "Evidence", "display": "Nasopharyngitis as other adverse event for Candesartan in NCT03640312", "reference": "#NCT03640312-OtherAdverseEvent-28-EG001"}], "focus": {"type": "EvidenceVariable", "display": "Nasopharyngitis as other adverse event", "reference": "#NCT03640312-OtherAdverseEvent-28"}, "title": "Nasopharyngitis"}, {"code": {"coding": [{"code": "results", "system": "https://fevir.net/resources/CodeSystem/179423", "display": "Results"}]}, "entry": [{"type": "Evidence", "display": "Cough as other adverse event for QUARTET LDQT in NCT03640312", "reference": "#NCT03640312-OtherAdverseEvent-29-EG000"}, {"type": "Evidence", "display": "Cough as other adverse event for Candesartan in NCT03640312", "reference": "#NCT03640312-OtherAdverseEvent-29-EG001"}], "focus": {"type": "EvidenceVariable", "display": "Cough as other adverse event", "reference": "#NCT03640312-OtherAdverseEvent-29"}, "title": "Cough"}, {"code": {"coding": [{"code": "results", "system": "https://fevir.net/resources/CodeSystem/179423", "display": "Results"}]}, "entry": [{"type": "Evidence", "display": "Dyspnea as other adverse event for QUARTET LDQT in NCT03640312", "reference": "#NCT03640312-OtherAdverseEvent-30-EG000"}, {"type": "Evidence", "display": "Dyspnea as other adverse event for Candesartan in NCT03640312", "reference": "#NCT03640312-OtherAdverseEvent-30-EG001"}], "focus": {"type": "EvidenceVariable", "display": "Dyspnea as other adverse event", "reference": "#NCT03640312-OtherAdverseEvent-30"}, "title": "Dyspnea"}, {"code": {"coding": [{"code": "results", "system": "https://fevir.net/resources/CodeSystem/179423", "display": "Results"}]}, "entry": [{"type": "Evidence", "display": "Respiration Abnormal as other adverse event for QUARTET LDQT in NCT03640312", "reference": "#NCT03640312-OtherAdverseEvent-31-EG000"}, {"type": "Evidence", "display": "Respiration Abnormal as other adverse event for Candesartan in NCT03640312", "reference": "#NCT03640312-OtherAdverseEvent-31-EG001"}], "focus": {"type": "EvidenceVariable", "display": "Respiration Abnormal as other adverse event", "reference": "#NCT03640312-OtherAdverseEvent-31"}, "title": "Respiration Abnormal"}, {"code": {"coding": [{"code": "results", "system": "https://fevir.net/resources/CodeSystem/179423", "display": "Results"}]}, "entry": [{"type": "Evidence", "display": "Hyperhidrosis as other adverse event for QUARTET LDQT in NCT03640312", "reference": "#NCT03640312-OtherAdverseEvent-32-EG000"}, {"type": "Evidence", "display": "Hyperhidrosis as other adverse event for Candesartan in NCT03640312", "reference": "#NCT03640312-OtherAdverseEvent-32-EG001"}], "focus": {"type": "EvidenceVariable", "display": "Hyperhidrosis as other adverse event", "reference": "#NCT03640312-OtherAdverseEvent-32"}, "title": "Hyperhidrosis"}, {"code": {"coding": [{"code": "results", "system": "https://fevir.net/resources/CodeSystem/179423", "display": "Results"}]}, "entry": [{"type": "Evidence", "display": "Rash as other adverse event for QUARTET LDQT in NCT03640312", "reference": "#NCT03640312-OtherAdverseEvent-33-EG000"}, {"type": "Evidence", "display": "Rash as other adverse event for Candesartan in NCT03640312", "reference": "#NCT03640312-OtherAdverseEvent-33-EG001"}], "focus": {"type": "EvidenceVariable", "display": "Rash as other adverse event", "reference": "#NCT03640312-OtherAdverseEvent-33"}, "title": "Rash"}, {"code": {"coding": [{"code": "results", "system": "https://fevir.net/resources/CodeSystem/179423", "display": "Results"}]}, "entry": [{"type": "Evidence", "display": "Dizziness as other adverse event for QUARTET LDQT in NCT03640312", "reference": "#NCT03640312-OtherAdverseEvent-34-EG000"}, {"type": "Evidence", "display": "Dizziness as other adverse event for Candesartan in NCT03640312", "reference": "#NCT03640312-OtherAdverseEvent-34-EG001"}], "focus": {"type": "EvidenceVariable", "display": "Dizziness as other adverse event", "reference": "#NCT03640312-OtherAdverseEvent-34"}, "title": "Dizziness"}]}]}