{"resourceType": "Composition", "meta": {"profile": ["http://hl7.org/fhir/uv/ebm/StructureDefinition/baseline-measure-report"], "versionId": "25", "lastUpdated": "2025-09-13T09:52:10.411Z"}, "contained": [{"resourceType": "EvidenceVariable", "id": "NCT03640312-BaselineMeasure-0", "meta": {"profile": ["http://hl7.org/fhir/uv/ebm/StructureDefinition/variable-definition"]}, "extension": [{"url": "http://hl7.org/fhir/uv/ebm/StructureDefinition/evidence-variable-handling-detail", "valueCodeableConcept": {"coding": [{"system": "https://fevir.net/resources/CodeSystem/179423", "code": "evidence-variable-handling-not-specified", "display": "Evidence variable handling not specified"}]}}], "title": "Age, Continuous", "status": "active", "definition": {"concept": {"text": "Age, Continuous"}}, "handling": "extension", "classifier": [{"text": "Baseline Measure"}], "timing": {"offsetDuration": {"value": 0}}}, {"resourceType": "EvidenceVariable", "id": "NCT03640312-BaselineMeasure-1", "meta": {"profile": ["http://hl7.org/fhir/uv/ebm/StructureDefinition/variable-definition"]}, "extension": [{"url": "http://hl7.org/fhir/uv/ebm/StructureDefinition/evidence-variable-handling-detail", "valueCodeableConcept": {"coding": [{"system": "https://fevir.net/resources/CodeSystem/179423", "code": "evidence-variable-handling-not-specified", "display": "Evidence variable handling not specified"}]}}], "title": "Sex: Female, Male", "status": "active", "definition": {"concept": {"text": "Sex: Female, Male"}}, "handling": "extension", "category": [{"name": "Female"}, {"name": "Male"}], "classifier": [{"text": "Baseline Measure"}], "timing": {"offsetDuration": {"value": 0}}}, {"resourceType": "EvidenceVariable", "id": "NCT03640312-BaselineMeasure-2", "meta": {"profile": ["http://hl7.org/fhir/uv/ebm/StructureDefinition/variable-definition"]}, "extension": [{"url": "http://hl7.org/fhir/uv/ebm/StructureDefinition/evidence-variable-handling-detail", "valueCodeableConcept": {"coding": [{"system": "https://fevir.net/resources/CodeSystem/179423", "code": "evidence-variable-handling-not-specified", "display": "Evidence variable handling not specified"}]}}], "title": "Race/Ethnicity, Customized", "status": "active", "definition": {"concept": {"text": "Race/Ethnicity, Customized"}}, "handling": "extension", "category": [{"name": "Race/Ethnicity:: Hispanic"}, {"name": "Race/Ethnicity:: Black/Sub Saharan African"}, {"name": "Race/Ethnicity:: White/Caucasian/Other"}], "classifier": [{"text": "Baseline Measure"}], "timing": {"offsetDuration": {"value": 0}}}, {"resourceType": "EvidenceVariable", "id": "NCT03640312-BaselineMeasure-3", "meta": {"profile": ["http://hl7.org/fhir/uv/ebm/StructureDefinition/variable-definition"]}, "extension": [{"url": "http://hl7.org/fhir/uv/ebm/StructureDefinition/evidence-variable-handling-detail", "valueCodeableConcept": {"coding": [{"system": "https://fevir.net/resources/CodeSystem/179423", "code": "evidence-variable-handling-not-specified", "display": "Evidence variable handling not specified"}]}}], "title": "Body Mass Index, kg/m^2", "status": "active", "definition": {"concept": {"text": "Body Mass Index, kg/m^2"}}, "handling": "extension", "classifier": [{"text": "Baseline Measure"}], "timing": {"offsetDuration": {"value": 0}}}, {"resourceType": "EvidenceVariable", "id": "NCT03640312-BaselineMeasure-4", "meta": {"profile": ["http://hl7.org/fhir/uv/ebm/StructureDefinition/variable-definition"]}, "extension": [{"url": "http://hl7.org/fhir/uv/ebm/StructureDefinition/evidence-variable-handling-detail", "valueCodeableConcept": {"coding": [{"system": "https://fevir.net/resources/CodeSystem/179423", "code": "evidence-variable-handling-not-specified", "display": "Evidence variable handling not specified"}]}}], "title": "Heart rate, beats per minute", "status": "active", "definition": {"concept": {"text": "Heart rate, beats per minute"}}, "handling": "extension", "classifier": [{"text": "Baseline Measure"}], "timing": {"offsetDuration": {"value": 0}}}, {"resourceType": "EvidenceVariable", "id": "NCT03640312-BaselineMeasure-5", "meta": {"profile": ["http://hl7.org/fhir/uv/ebm/StructureDefinition/variable-definition"]}, "extension": [{"url": "http://hl7.org/fhir/uv/ebm/StructureDefinition/evidence-variable-handling-detail", "valueCodeableConcept": {"coding": [{"system": "https://fevir.net/resources/CodeSystem/179423", "code": "evidence-variable-handling-not-specified", "display": "Evidence variable handling not specified"}]}}], "title": "History of diabetes, n (%)", "status": "active", "definition": {"concept": {"text": "History of diabetes, n (%)"}}, "handling": "extension", "classifier": [{"text": "Baseline Measure"}], "timing": {"offsetDuration": {"value": 0}}}, {"resourceType": "EvidenceVariable", "id": "NCT03640312-BaselineMeasure-6", "meta": {"profile": ["http://hl7.org/fhir/uv/ebm/StructureDefinition/variable-definition"]}, "extension": [{"url": "http://hl7.org/fhir/uv/ebm/StructureDefinition/evidence-variable-handling-detail", "valueCodeableConcept": {"coding": [{"system": "https://fevir.net/resources/CodeSystem/179423", "code": "evidence-variable-handling-not-specified", "display": "Evidence variable handling not specified"}]}}], "title": "History of smoking, n (%)", "status": "active", "definition": {"concept": {"text": "History of smoking, n (%)"}}, "handling": "extension", "classifier": [{"text": "Baseline Measure"}], "timing": {"offsetDuration": {"value": 0}}}, {"resourceType": "EvidenceVariable", "id": "NCT03640312-BaselineMeasure-7", "meta": {"profile": ["http://hl7.org/fhir/uv/ebm/StructureDefinition/variable-definition"]}, "extension": [{"url": "http://hl7.org/fhir/uv/ebm/StructureDefinition/evidence-variable-handling-detail", "valueCodeableConcept": {"coding": [{"system": "https://fevir.net/resources/CodeSystem/179423", "code": "evidence-variable-handling-not-specified", "display": "Evidence variable handling not specified"}]}}], "title": "History of depression, n (%)", "status": "active", "definition": {"concept": {"text": "History of depression, n (%)"}}, "handling": "extension", "classifier": [{"text": "Baseline Measure"}], "timing": {"offsetDuration": {"value": 0}}}, {"resourceType": "EvidenceVariable", "id": "NCT03640312-BaselineMeasure-8", "meta": {"profile": ["http://hl7.org/fhir/uv/ebm/StructureDefinition/variable-definition"]}, "extension": [{"url": "http://hl7.org/fhir/uv/ebm/StructureDefinition/evidence-variable-handling-detail", "valueCodeableConcept": {"coding": [{"system": "https://fevir.net/resources/CodeSystem/179423", "code": "evidence-variable-handling-not-specified", "display": "Evidence variable handling not specified"}]}}], "title": "Weekly alcohol use, n (%)", "status": "active", "definition": {"concept": {"text": "Weekly alcohol use, n (%)"}}, "handling": "extension", "classifier": [{"text": "Baseline Measure"}], "timing": {"offsetDuration": {"value": 0}}}, {"resourceType": "EvidenceVariable", "id": "NCT03640312-BaselineMeasure-9", "meta": {"profile": ["http://hl7.org/fhir/uv/ebm/StructureDefinition/variable-definition"]}, "extension": [{"url": "http://hl7.org/fhir/uv/ebm/StructureDefinition/evidence-variable-handling-detail", "valueCodeableConcept": {"coding": [{"system": "https://fevir.net/resources/CodeSystem/179423", "code": "evidence-variable-handling-not-specified", "display": "Evidence variable handling not specified"}]}}], "title": "Systolic Blood Pressure, mm Hg", "status": "active", "definition": {"concept": {"text": "Systolic Blood Pressure, mm Hg"}}, "handling": "extension", "classifier": [{"text": "Baseline Measure"}], "timing": {"offsetDuration": {"value": 0}}}, {"resourceType": "EvidenceVariable", "id": "NCT03640312-BaselineMeasure-10", "meta": {"profile": ["http://hl7.org/fhir/uv/ebm/StructureDefinition/variable-definition"]}, "extension": [{"url": "http://hl7.org/fhir/uv/ebm/StructureDefinition/evidence-variable-handling-detail", "valueCodeableConcept": {"coding": [{"system": "https://fevir.net/resources/CodeSystem/179423", "code": "evidence-variable-handling-not-specified", "display": "Evidence variable handling not specified"}]}}], "title": "Diastolic Blood Pressure, mm Hg", "status": "active", "definition": {"concept": {"text": "Diastolic Blood Pressure, mm Hg"}}, "handling": "extension", "classifier": [{"text": "Baseline Measure"}], "timing": {"offsetDuration": {"value": 0}}}, {"resourceType": "Group", "id": "BG000", "meta": {"profile": ["http://hl7.org/fhir/uv/ebm/StructureDefinition/exposure-group"]}, "name": "QUARTET LDQT", "description": "Patients randomized to the intervention arm took a once daily ultra-low-dose quadruple combination therapy (QUARTET LDQT). The LDQT is an overencapsulated combination pill comprising four types of blood pressure lowering medications each at \u00bc standard doses. QUARTET includes candesartan 2mg, amlodipine besylate 1.25mg, indapamide 0.625mg, and bisoprolol 2.5mg. The individual components are currently approved and marketed within the United States.\n\nQUARTET LDQT: Ultra-low-dose combination therapy comprising four different blood pressure lowering drugs at 1/4 dosages. Taken once daily for 12 weeks.", "type": "person", "membership": "enumerated", "code": {"text": "Participants"}, "quantity": 32, "characteristic": [{"code": {"text": "Research Study from which this is a baseline group"}, "valueReference": {"display": "NCT03640312"}, "exclude": false}]}, {"resourceType": "Group", "id": "BG001", "meta": {"profile": ["http://hl7.org/fhir/uv/ebm/StructureDefinition/exposure-group"]}, "name": "Candesartan", "description": "Patients randomized to the comparison arm took a once daily 8mg candesartan.\n\nCandesartan: Standard monotherapy of 8mg candesartan. Taken once daily for 12 weeks.", "type": "person", "membership": "enumerated", "code": {"text": "Participants"}, "quantity": 30, "characteristic": [{"code": {"text": "Research Study from which this is a baseline group"}, "valueReference": {"display": "NCT03640312"}, "exclude": false}]}, {"resourceType": "Group", "id": "BG002", "meta": {"profile": ["http://hl7.org/fhir/uv/ebm/StructureDefinition/exposure-group"]}, "name": "Total", "description": "Total of all reporting groups", "type": "person", "membership": "enumerated", "code": {"text": "Participants"}, "quantity": 62, "characteristic": [{"code": {"text": "Research Study from which this is a baseline group"}, "valueReference": {"display": "NCT03640312"}, "exclude": false}]}, {"resourceType": "Evidence", "id": "NCT03640312-BaselineMeasure-0-BG000", "meta": {"profile": ["http://hl7.org/fhir/uv/ebm/StructureDefinition/non-comparative-evidence"]}, "name": "NCT03640312_BaselineMeasure_0_BG000", "title": "Age, Continuous for QUARTET LDQT at baseline in NCT03640312", "status": "active", "variableDefinition": [{"variableRole": "population", "observed": {"reference": "#BG000", "type": "Group", "display": "QUARTET LDQT"}}, {"variableRole": "outcome", "observed": {"reference": "#NCT03640312-BaselineMeasure-0", "type": "EvidenceVariable", "display": "Age, Continuous"}}], "statistic": [{"statisticType": {"coding": [{"system": "https://fevir.net/sevco", "code": "STATO:0000573", "display": "mean"}]}, "quantity": {"value": 52, "unit": "years"}, "sampleSize": {"knownDataCount": 32}, "attributeEstimate": [{"type": {"text": "Standard Deviation"}, "quantity": {"value": 12.6, "unit": "years"}}]}]}, {"resourceType": "Evidence", "id": "NCT03640312-BaselineMeasure-0-BG001", "meta": {"profile": ["http://hl7.org/fhir/uv/ebm/StructureDefinition/non-comparative-evidence"]}, "name": "NCT03640312_BaselineMeasure_0_BG001", "title": "Age, Continuous for Candesartan at baseline in NCT03640312", "status": "active", "variableDefinition": [{"variableRole": "population", "observed": {"reference": "#BG001", "type": "Group", "display": "Candesartan"}}, {"variableRole": "outcome", "observed": {"reference": "#NCT03640312-BaselineMeasure-0", "type": "EvidenceVariable", "display": "Age, Continuous"}}], "statistic": [{"statisticType": {"coding": [{"system": "https://fevir.net/sevco", "code": "STATO:0000573", "display": "mean"}]}, "quantity": {"value": 52, "unit": "years"}, "sampleSize": {"knownDataCount": 30}, "attributeEstimate": [{"type": {"text": "Standard Deviation"}, "quantity": {"value": 10.5, "unit": "years"}}]}]}, {"resourceType": "Evidence", "id": "NCT03640312-BaselineMeasure-0-BG002", "meta": {"profile": ["http://hl7.org/fhir/uv/ebm/StructureDefinition/non-comparative-evidence"]}, "name": "NCT03640312_BaselineMeasure_0_BG002", "title": "Age, Continuous for Total at baseline in NCT03640312", "status": "active", "variableDefinition": [{"variableRole": "population", "observed": {"reference": "#BG002", "type": "Group", "display": "Total"}}, {"variableRole": "outcome", "observed": {"reference": "#NCT03640312-BaselineMeasure-0", "type": "EvidenceVariable", "display": "Age, Continuous"}}], "statistic": [{"statisticType": {"coding": [{"system": "https://fevir.net/sevco", "code": "STATO:0000573", "display": "mean"}]}, "quantity": {"value": 52, "unit": "years"}, "sampleSize": {"knownDataCount": 62}, "attributeEstimate": [{"type": {"text": "Standard Deviation"}, "quantity": {"value": 11.5, "unit": "years"}}]}]}, {"resourceType": "Evidence", "id": "NCT03640312-BaselineMeasure-1-BG000", "meta": {"profile": ["http://hl7.org/fhir/uv/ebm/StructureDefinition/non-comparative-evidence"]}, "name": "NCT03640312_BaselineMeasure_1_BG000", "title": "Sex: Female, Male for QUARTET LDQT at baseline in NCT03640312", "status": "active", "variableDefinition": [{"variableRole": "population", "observed": {"reference": "#BG000", "type": "Group", "display": "QUARTET LDQT"}}, {"variableRole": "outcome", "observed": {"reference": "#NCT03640312-BaselineMeasure-1", "type": "EvidenceVariable", "display": "Sex: Female, Male"}}], "statistic": [{"statisticType": {"coding": [{"system": "https://fevir.net/sevco", "code": "STATO:0000047", "display": "count"}], "text": "Count of Participants"}, "category": {"text": "Female"}, "quantity": {"value": 15, "unit": "Participants"}, "sampleSize": {"knownDataCount": 32}}, {"statisticType": {"coding": [{"system": "https://fevir.net/sevco", "code": "STATO:0000047", "display": "count"}], "text": "Count of Participants"}, "category": {"text": "Male"}, "quantity": {"value": 17, "unit": "Participants"}, "sampleSize": {"knownDataCount": 32}}]}, {"resourceType": "Evidence", "id": "NCT03640312-BaselineMeasure-1-BG001", "meta": {"profile": ["http://hl7.org/fhir/uv/ebm/StructureDefinition/non-comparative-evidence"]}, "name": "NCT03640312_BaselineMeasure_1_BG001", "title": "Sex: Female, Male for Candesartan at baseline in NCT03640312", "status": "active", "variableDefinition": [{"variableRole": "population", "observed": {"reference": "#BG001", "type": "Group", "display": "Candesartan"}}, {"variableRole": "outcome", "observed": {"reference": "#NCT03640312-BaselineMeasure-1", "type": "EvidenceVariable", "display": "Sex: Female, Male"}}], "statistic": [{"statisticType": {"coding": [{"system": "https://fevir.net/sevco", "code": "STATO:0000047", "display": "count"}], "text": "Count of Participants"}, "category": {"text": "Female"}, "quantity": {"value": 13, "unit": "Participants"}, "sampleSize": {"knownDataCount": 30}}, {"statisticType": {"coding": [{"system": "https://fevir.net/sevco", "code": "STATO:0000047", "display": "count"}], "text": "Count of Participants"}, "category": {"text": "Male"}, "quantity": {"value": 17, "unit": "Participants"}, "sampleSize": {"knownDataCount": 30}}]}, {"resourceType": "Evidence", "id": "NCT03640312-BaselineMeasure-1-BG002", "meta": {"profile": ["http://hl7.org/fhir/uv/ebm/StructureDefinition/non-comparative-evidence"]}, "name": "NCT03640312_BaselineMeasure_1_BG002", "title": "Sex: Female, Male for Total at baseline in NCT03640312", "status": "active", "variableDefinition": [{"variableRole": "population", "observed": {"reference": "#BG002", "type": "Group", "display": "Total"}}, {"variableRole": "outcome", "observed": {"reference": "#NCT03640312-BaselineMeasure-1", "type": "EvidenceVariable", "display": "Sex: Female, Male"}}], "statistic": [{"statisticType": {"coding": [{"system": "https://fevir.net/sevco", "code": "STATO:0000047", "display": "count"}], "text": "Count of Participants"}, "category": {"text": "Female"}, "quantity": {"value": 28, "unit": "Participants"}, "sampleSize": {"knownDataCount": 62}}, {"statisticType": {"coding": [{"system": "https://fevir.net/sevco", "code": "STATO:0000047", "display": "count"}], "text": "Count of Participants"}, "category": {"text": "Male"}, "quantity": {"value": 34, "unit": "Participants"}, "sampleSize": {"knownDataCount": 62}}]}, {"resourceType": "Evidence", "id": "NCT03640312-BaselineMeasure-2-BG000", "meta": {"profile": ["http://hl7.org/fhir/uv/ebm/StructureDefinition/non-comparative-evidence"]}, "name": "NCT03640312_BaselineMeasure_2_BG000", "title": "Race/Ethnicity, Customized for QUARTET LDQT at baseline in NCT03640312", "status": "active", "variableDefinition": [{"variableRole": "population", "observed": {"reference": "#BG000", "type": "Group", "display": "QUARTET LDQT"}}, {"variableRole": "outcome", "observed": {"reference": "#NCT03640312-BaselineMeasure-2", "type": "EvidenceVariable", "display": "Race/Ethnicity, Customized"}}], "statistic": [{"statisticType": {"coding": [{"system": "https://fevir.net/sevco", "code": "STATO:0000047", "display": "count"}], "text": "Count of Participants"}, "category": {"text": "Race/Ethnicity:: Hispanic"}, "quantity": {"value": 24, "unit": "Participants"}, "sampleSize": {"knownDataCount": 32}}, {"statisticType": {"coding": [{"system": "https://fevir.net/sevco", "code": "STATO:0000047", "display": "count"}], "text": "Count of Participants"}, "category": {"text": "Race/Ethnicity:: Black/Sub Saharan African"}, "quantity": {"value": 4, "unit": "Participants"}, "sampleSize": {"knownDataCount": 32}}, {"statisticType": {"coding": [{"system": "https://fevir.net/sevco", "code": "STATO:0000047", "display": "count"}], "text": "Count of Participants"}, "category": {"text": "Race/Ethnicity:: White/Caucasian/Other"}, "quantity": {"value": 4, "unit": "Participants"}, "sampleSize": {"knownDataCount": 32}}]}, {"resourceType": "Evidence", "id": "NCT03640312-BaselineMeasure-2-BG001", "meta": {"profile": ["http://hl7.org/fhir/uv/ebm/StructureDefinition/non-comparative-evidence"]}, "name": "NCT03640312_BaselineMeasure_2_BG001", "title": "Race/Ethnicity, Customized for Candesartan at baseline in NCT03640312", "status": "active", "variableDefinition": [{"variableRole": "population", "observed": {"reference": "#BG001", "type": "Group", "display": "Candesartan"}}, {"variableRole": "outcome", "observed": {"reference": "#NCT03640312-BaselineMeasure-2", "type": "EvidenceVariable", "display": "Race/Ethnicity, Customized"}}], "statistic": [{"statisticType": {"coding": [{"system": "https://fevir.net/sevco", "code": "STATO:0000047", "display": "count"}], "text": "Count of Participants"}, "category": {"text": "Race/Ethnicity:: Hispanic"}, "quantity": {"value": 21, "unit": "Participants"}, "sampleSize": {"knownDataCount": 30}}, {"statisticType": {"coding": [{"system": "https://fevir.net/sevco", "code": "STATO:0000047", "display": "count"}], "text": "Count of Participants"}, "category": {"text": "Race/Ethnicity:: Black/Sub Saharan African"}, "quantity": {"value": 7, "unit": "Participants"}, "sampleSize": {"knownDataCount": 30}}, {"statisticType": {"coding": [{"system": "https://fevir.net/sevco", "code": "STATO:0000047", "display": "count"}], "text": "Count of Participants"}, "category": {"text": "Race/Ethnicity:: White/Caucasian/Other"}, "quantity": {"value": 2, "unit": "Participants"}, "sampleSize": {"knownDataCount": 30}}]}, {"resourceType": "Evidence", "id": "NCT03640312-BaselineMeasure-2-BG002", "meta": {"profile": ["http://hl7.org/fhir/uv/ebm/StructureDefinition/non-comparative-evidence"]}, "name": "NCT03640312_BaselineMeasure_2_BG002", "title": "Race/Ethnicity, Customized for Total at baseline in NCT03640312", "status": "active", "variableDefinition": [{"variableRole": "population", "observed": {"reference": "#BG002", "type": "Group", "display": "Total"}}, {"variableRole": "outcome", "observed": {"reference": "#NCT03640312-BaselineMeasure-2", "type": "EvidenceVariable", "display": "Race/Ethnicity, Customized"}}], "statistic": [{"statisticType": {"coding": [{"system": "https://fevir.net/sevco", "code": "STATO:0000047", "display": "count"}], "text": "Count of Participants"}, "category": {"text": "Race/Ethnicity:: Hispanic"}, "quantity": {"value": 45, "unit": "Participants"}, "sampleSize": {"knownDataCount": 62}}, {"statisticType": {"coding": [{"system": "https://fevir.net/sevco", "code": "STATO:0000047", "display": "count"}], "text": "Count of Participants"}, "category": {"text": "Race/Ethnicity:: Black/Sub Saharan African"}, "quantity": {"value": 11, "unit": "Participants"}, "sampleSize": {"knownDataCount": 62}}, {"statisticType": {"coding": [{"system": "https://fevir.net/sevco", "code": "STATO:0000047", "display": "count"}], "text": "Count of Participants"}, "category": {"text": "Race/Ethnicity:: White/Caucasian/Other"}, "quantity": {"value": 6, "unit": "Participants"}, "sampleSize": {"knownDataCount": 62}}]}, {"resourceType": "Evidence", "id": "NCT03640312-BaselineMeasure-3-BG000", "meta": {"profile": ["http://hl7.org/fhir/uv/ebm/StructureDefinition/non-comparative-evidence"]}, "name": "NCT03640312_BaselineMeasure_3_BG000", "title": "Body Mass Index, kg/m^2 for QUARTET LDQT at baseline in NCT03640312", "status": "active", "variableDefinition": [{"variableRole": "population", "observed": {"reference": "#BG000", "type": "Group", "display": "QUARTET LDQT"}}, {"variableRole": "outcome", "observed": {"reference": "#NCT03640312-BaselineMeasure-3", "type": "EvidenceVariable", "display": "Body Mass Index, kg/m^2"}}], "statistic": [{"statisticType": {"coding": [{"system": "https://fevir.net/sevco", "code": "STATO:0000573", "display": "mean"}]}, "quantity": {"value": 33, "unit": "kg/m^2"}, "sampleSize": {"knownDataCount": 32}, "attributeEstimate": [{"type": {"text": "Standard Deviation"}, "quantity": {"value": 6.9, "unit": "kg/m^2"}}]}]}, {"resourceType": "Evidence", "id": "NCT03640312-BaselineMeasure-3-BG001", "meta": {"profile": ["http://hl7.org/fhir/uv/ebm/StructureDefinition/non-comparative-evidence"]}, "name": "NCT03640312_BaselineMeasure_3_BG001", "title": "Body Mass Index, kg/m^2 for Candesartan at baseline in NCT03640312", "status": "active", "variableDefinition": [{"variableRole": "population", "observed": {"reference": "#BG001", "type": "Group", "display": "Candesartan"}}, {"variableRole": "outcome", "observed": {"reference": "#NCT03640312-BaselineMeasure-3", "type": "EvidenceVariable", "display": "Body Mass Index, kg/m^2"}}], "statistic": [{"statisticType": {"coding": [{"system": "https://fevir.net/sevco", "code": "STATO:0000573", "display": "mean"}]}, "quantity": {"value": 34, "unit": "kg/m^2"}, "sampleSize": {"knownDataCount": 30}, "attributeEstimate": [{"type": {"text": "Standard Deviation"}, "quantity": {"value": 7.9, "unit": "kg/m^2"}}]}]}, {"resourceType": "Evidence", "id": "NCT03640312-BaselineMeasure-3-BG002", "meta": {"profile": ["http://hl7.org/fhir/uv/ebm/StructureDefinition/non-comparative-evidence"]}, "name": "NCT03640312_BaselineMeasure_3_BG002", "title": "Body Mass Index, kg/m^2 for Total at baseline in NCT03640312", "status": "active", "variableDefinition": [{"variableRole": "population", "observed": {"reference": "#BG002", "type": "Group", "display": "Total"}}, {"variableRole": "outcome", "observed": {"reference": "#NCT03640312-BaselineMeasure-3", "type": "EvidenceVariable", "display": "Body Mass Index, kg/m^2"}}], "statistic": [{"statisticType": {"coding": [{"system": "https://fevir.net/sevco", "code": "STATO:0000573", "display": "mean"}]}, "quantity": {"value": 34, "unit": "kg/m^2"}, "sampleSize": {"knownDataCount": 62}, "attributeEstimate": [{"type": {"text": "Standard Deviation"}, "quantity": {"value": 7.3, "unit": "kg/m^2"}}]}]}, {"resourceType": "Evidence", "id": "NCT03640312-BaselineMeasure-4-BG000", "meta": {"profile": ["http://hl7.org/fhir/uv/ebm/StructureDefinition/non-comparative-evidence"]}, "name": "NCT03640312_BaselineMeasure_4_BG000", "title": "Heart rate, beats per minute for QUARTET LDQT at baseline in NCT03640312", "status": "active", "variableDefinition": [{"variableRole": "population", "observed": {"reference": "#BG000", "type": "Group", "display": "QUARTET LDQT"}}, {"variableRole": "outcome", "observed": {"reference": "#NCT03640312-BaselineMeasure-4", "type": "EvidenceVariable", "display": "Heart rate, beats per minute"}}], "statistic": [{"statisticType": {"coding": [{"system": "https://fevir.net/sevco", "code": "STATO:0000573", "display": "mean"}]}, "quantity": {"value": 71.5, "unit": "beats per minute"}, "sampleSize": {"knownDataCount": 32}, "attributeEstimate": [{"type": {"text": "Standard Deviation"}, "quantity": {"value": 10, "unit": "beats per minute"}}]}]}, {"resourceType": "Evidence", "id": "NCT03640312-BaselineMeasure-4-BG001", "meta": {"profile": ["http://hl7.org/fhir/uv/ebm/StructureDefinition/non-comparative-evidence"]}, "name": "NCT03640312_BaselineMeasure_4_BG001", "title": "Heart rate, beats per minute for Candesartan at baseline in NCT03640312", "status": "active", "variableDefinition": [{"variableRole": "population", "observed": {"reference": "#BG001", "type": "Group", "display": "Candesartan"}}, {"variableRole": "outcome", "observed": {"reference": "#NCT03640312-BaselineMeasure-4", "type": "EvidenceVariable", "display": "Heart rate, beats per minute"}}], "statistic": [{"statisticType": {"coding": [{"system": "https://fevir.net/sevco", "code": "STATO:0000573", "display": "mean"}]}, "quantity": {"value": 71.7, "unit": "beats per minute"}, "sampleSize": {"knownDataCount": 30}, "attributeEstimate": [{"type": {"text": "Standard Deviation"}, "quantity": {"value": 11.7, "unit": "beats per minute"}}]}]}, {"resourceType": "Evidence", "id": "NCT03640312-BaselineMeasure-4-BG002", "meta": {"profile": ["http://hl7.org/fhir/uv/ebm/StructureDefinition/non-comparative-evidence"]}, "name": "NCT03640312_BaselineMeasure_4_BG002", "title": "Heart rate, beats per minute for Total at baseline in NCT03640312", "status": "active", "variableDefinition": [{"variableRole": "population", "observed": {"reference": "#BG002", "type": "Group", "display": "Total"}}, {"variableRole": "outcome", "observed": {"reference": "#NCT03640312-BaselineMeasure-4", "type": "EvidenceVariable", "display": "Heart rate, beats per minute"}}], "statistic": [{"statisticType": {"coding": [{"system": "https://fevir.net/sevco", "code": "STATO:0000573", "display": "mean"}]}, "quantity": {"value": 71.6, "unit": "beats per minute"}, "sampleSize": {"knownDataCount": 62}, "attributeEstimate": [{"type": {"text": "Standard Deviation"}, "quantity": {"value": 10.8, "unit": "beats per minute"}}]}]}, {"resourceType": "Evidence", "id": "NCT03640312-BaselineMeasure-5-BG000", "meta": {"profile": ["http://hl7.org/fhir/uv/ebm/StructureDefinition/non-comparative-evidence"]}, "name": "NCT03640312_BaselineMeasure_5_BG000", "title": "History of diabetes, n (%) for QUARTET LDQT at baseline in NCT03640312", "status": "active", "variableDefinition": [{"variableRole": "population", "observed": {"reference": "#BG000", "type": "Group", "display": "QUARTET LDQT"}}, {"variableRole": "outcome", "observed": {"reference": "#NCT03640312-BaselineMeasure-5", "type": "EvidenceVariable", "display": "History of diabetes, n (%)"}}], "statistic": [{"statisticType": {"coding": [{"system": "https://fevir.net/sevco", "code": "STATO:0000047", "display": "count"}], "text": "Count of Participants"}, "quantity": {"value": 10, "unit": "Participants"}, "sampleSize": {"knownDataCount": 32}}]}, {"resourceType": "Evidence", "id": "NCT03640312-BaselineMeasure-5-BG001", "meta": {"profile": ["http://hl7.org/fhir/uv/ebm/StructureDefinition/non-comparative-evidence"]}, "name": "NCT03640312_BaselineMeasure_5_BG001", "title": "History of diabetes, n (%) for Candesartan at baseline in NCT03640312", "status": "active", "variableDefinition": [{"variableRole": "population", "observed": {"reference": "#BG001", "type": "Group", "display": "Candesartan"}}, {"variableRole": "outcome", "observed": {"reference": "#NCT03640312-BaselineMeasure-5", "type": "EvidenceVariable", "display": "History of diabetes, n (%)"}}], "statistic": [{"statisticType": {"coding": [{"system": "https://fevir.net/sevco", "code": "STATO:0000047", "display": "count"}], "text": "Count of Participants"}, "quantity": {"value": 7, "unit": "Participants"}, "sampleSize": {"knownDataCount": 30}}]}, {"resourceType": "Evidence", "id": "NCT03640312-BaselineMeasure-5-BG002", "meta": {"profile": ["http://hl7.org/fhir/uv/ebm/StructureDefinition/non-comparative-evidence"]}, "name": "NCT03640312_BaselineMeasure_5_BG002", "title": "History of diabetes, n (%) for Total at baseline in NCT03640312", "status": "active", "variableDefinition": [{"variableRole": "population", "observed": {"reference": "#BG002", "type": "Group", "display": "Total"}}, {"variableRole": "outcome", "observed": {"reference": "#NCT03640312-BaselineMeasure-5", "type": "EvidenceVariable", "display": "History of diabetes, n (%)"}}], "statistic": [{"statisticType": {"coding": [{"system": "https://fevir.net/sevco", "code": "STATO:0000047", "display": "count"}], "text": "Count of Participants"}, "quantity": {"value": 17, "unit": "Participants"}, "sampleSize": {"knownDataCount": 62}}]}, {"resourceType": "Evidence", "id": "NCT03640312-BaselineMeasure-6-BG000", "meta": {"profile": ["http://hl7.org/fhir/uv/ebm/StructureDefinition/non-comparative-evidence"]}, "name": "NCT03640312_BaselineMeasure_6_BG000", "title": "History of smoking, n (%) for QUARTET LDQT at baseline in NCT03640312", "status": "active", "variableDefinition": [{"variableRole": "population", "observed": {"reference": "#BG000", "type": "Group", "display": "QUARTET LDQT"}}, {"variableRole": "outcome", "observed": {"reference": "#NCT03640312-BaselineMeasure-6", "type": "EvidenceVariable", "display": "History of smoking, n (%)"}}], "statistic": [{"statisticType": {"coding": [{"system": "https://fevir.net/sevco", "code": "STATO:0000047", "display": "count"}], "text": "Count of Participants"}, "quantity": {"value": 11, "unit": "Participants"}, "sampleSize": {"knownDataCount": 32}}]}, {"resourceType": "Evidence", "id": "NCT03640312-BaselineMeasure-6-BG001", "meta": {"profile": ["http://hl7.org/fhir/uv/ebm/StructureDefinition/non-comparative-evidence"]}, "name": "NCT03640312_BaselineMeasure_6_BG001", "title": "History of smoking, n (%) for Candesartan at baseline in NCT03640312", "status": "active", "variableDefinition": [{"variableRole": "population", "observed": {"reference": "#BG001", "type": "Group", "display": "Candesartan"}}, {"variableRole": "outcome", "observed": {"reference": "#NCT03640312-BaselineMeasure-6", "type": "EvidenceVariable", "display": "History of smoking, n (%)"}}], "statistic": [{"statisticType": {"coding": [{"system": "https://fevir.net/sevco", "code": "STATO:0000047", "display": "count"}], "text": "Count of Participants"}, "quantity": {"value": 9, "unit": "Participants"}, "sampleSize": {"knownDataCount": 30}}]}, {"resourceType": "Evidence", "id": "NCT03640312-BaselineMeasure-6-BG002", "meta": {"profile": ["http://hl7.org/fhir/uv/ebm/StructureDefinition/non-comparative-evidence"]}, "name": "NCT03640312_BaselineMeasure_6_BG002", "title": "History of smoking, n (%) for Total at baseline in NCT03640312", "status": "active", "variableDefinition": [{"variableRole": "population", "observed": {"reference": "#BG002", "type": "Group", "display": "Total"}}, {"variableRole": "outcome", "observed": {"reference": "#NCT03640312-BaselineMeasure-6", "type": "EvidenceVariable", "display": "History of smoking, n (%)"}}], "statistic": [{"statisticType": {"coding": [{"system": "https://fevir.net/sevco", "code": "STATO:0000047", "display": "count"}], "text": "Count of Participants"}, "quantity": {"value": 20, "unit": "Participants"}, "sampleSize": {"knownDataCount": 62}}]}, {"resourceType": "Evidence", "id": "NCT03640312-BaselineMeasure-7-BG000", "meta": {"profile": ["http://hl7.org/fhir/uv/ebm/StructureDefinition/non-comparative-evidence"]}, "name": "NCT03640312_BaselineMeasure_7_BG000", "title": "History of depression, n (%) for QUARTET LDQT at baseline in NCT03640312", "status": "active", "variableDefinition": [{"variableRole": "population", "observed": {"reference": "#BG000", "type": "Group", "display": "QUARTET LDQT"}}, {"variableRole": "outcome", "observed": {"reference": "#NCT03640312-BaselineMeasure-7", "type": "EvidenceVariable", "display": "History of depression, n (%)"}}], "statistic": [{"statisticType": {"coding": [{"system": "https://fevir.net/sevco", "code": "STATO:0000047", "display": "count"}], "text": "Count of Participants"}, "quantity": {"value": 7, "unit": "Participants"}, "sampleSize": {"knownDataCount": 32}}]}, {"resourceType": "Evidence", "id": "NCT03640312-BaselineMeasure-7-BG001", "meta": {"profile": ["http://hl7.org/fhir/uv/ebm/StructureDefinition/non-comparative-evidence"]}, "name": "NCT03640312_BaselineMeasure_7_BG001", "title": "History of depression, n (%) for Candesartan at baseline in NCT03640312", "status": "active", "variableDefinition": [{"variableRole": "population", "observed": {"reference": "#BG001", "type": "Group", "display": "Candesartan"}}, {"variableRole": "outcome", "observed": {"reference": "#NCT03640312-BaselineMeasure-7", "type": "EvidenceVariable", "display": "History of depression, n (%)"}}], "statistic": [{"statisticType": {"coding": [{"system": "https://fevir.net/sevco", "code": "STATO:0000047", "display": "count"}], "text": "Count of Participants"}, "quantity": {"value": 9, "unit": "Participants"}, "sampleSize": {"knownDataCount": 30}}]}, {"resourceType": "Evidence", "id": "NCT03640312-BaselineMeasure-7-BG002", "meta": {"profile": ["http://hl7.org/fhir/uv/ebm/StructureDefinition/non-comparative-evidence"]}, "name": "NCT03640312_BaselineMeasure_7_BG002", "title": "History of depression, n (%) for Total at baseline in NCT03640312", "status": "active", "variableDefinition": [{"variableRole": "population", "observed": {"reference": "#BG002", "type": "Group", "display": "Total"}}, {"variableRole": "outcome", "observed": {"reference": "#NCT03640312-BaselineMeasure-7", "type": "EvidenceVariable", "display": "History of depression, n (%)"}}], "statistic": [{"statisticType": {"coding": [{"system": "https://fevir.net/sevco", "code": "STATO:0000047", "display": "count"}], "text": "Count of Participants"}, "quantity": {"value": 16, "unit": "Participants"}, "sampleSize": {"knownDataCount": 62}}]}, {"resourceType": "Evidence", "id": "NCT03640312-BaselineMeasure-8-BG000", "meta": {"profile": ["http://hl7.org/fhir/uv/ebm/StructureDefinition/non-comparative-evidence"]}, "name": "NCT03640312_BaselineMeasure_8_BG000", "title": "Weekly alcohol use, n (%) for QUARTET LDQT at baseline in NCT03640312", "status": "active", "variableDefinition": [{"variableRole": "population", "observed": {"reference": "#BG000", "type": "Group", "display": "QUARTET LDQT"}}, {"variableRole": "outcome", "observed": {"reference": "#NCT03640312-BaselineMeasure-8", "type": "EvidenceVariable", "display": "Weekly alcohol use, n (%)"}}], "statistic": [{"statisticType": {"coding": [{"system": "https://fevir.net/sevco", "code": "STATO:0000047", "display": "count"}], "text": "Count of Participants"}, "quantity": {"value": 10, "unit": "Participants"}, "sampleSize": {"knownDataCount": 32}}]}, {"resourceType": "Evidence", "id": "NCT03640312-BaselineMeasure-8-BG001", "meta": {"profile": ["http://hl7.org/fhir/uv/ebm/StructureDefinition/non-comparative-evidence"]}, "name": "NCT03640312_BaselineMeasure_8_BG001", "title": "Weekly alcohol use, n (%) for Candesartan at baseline in NCT03640312", "status": "active", "variableDefinition": [{"variableRole": "population", "observed": {"reference": "#BG001", "type": "Group", "display": "Candesartan"}}, {"variableRole": "outcome", "observed": {"reference": "#NCT03640312-BaselineMeasure-8", "type": "EvidenceVariable", "display": "Weekly alcohol use, n (%)"}}], "statistic": [{"statisticType": {"coding": [{"system": "https://fevir.net/sevco", "code": "STATO:0000047", "display": "count"}], "text": "Count of Participants"}, "quantity": {"value": 9, "unit": "Participants"}, "sampleSize": {"knownDataCount": 30}}]}, {"resourceType": "Evidence", "id": "NCT03640312-BaselineMeasure-8-BG002", "meta": {"profile": ["http://hl7.org/fhir/uv/ebm/StructureDefinition/non-comparative-evidence"]}, "name": "NCT03640312_BaselineMeasure_8_BG002", "title": "Weekly alcohol use, n (%) for Total at baseline in NCT03640312", "status": "active", "variableDefinition": [{"variableRole": "population", "observed": {"reference": "#BG002", "type": "Group", "display": "Total"}}, {"variableRole": "outcome", "observed": {"reference": "#NCT03640312-BaselineMeasure-8", "type": "EvidenceVariable", "display": "Weekly alcohol use, n (%)"}}], "statistic": [{"statisticType": {"coding": [{"system": "https://fevir.net/sevco", "code": "STATO:0000047", "display": "count"}], "text": "Count of Participants"}, "quantity": {"value": 19, "unit": "Participants"}, "sampleSize": {"knownDataCount": 62}}]}, {"resourceType": "Evidence", "id": "NCT03640312-BaselineMeasure-9-BG000", "meta": {"profile": ["http://hl7.org/fhir/uv/ebm/StructureDefinition/non-comparative-evidence"]}, "name": "NCT03640312_BaselineMeasure_9_BG000", "title": "Systolic Blood Pressure, mm Hg for QUARTET LDQT at baseline in NCT03640312", "status": "active", "variableDefinition": [{"variableRole": "population", "observed": {"reference": "#BG000", "type": "Group", "display": "QUARTET LDQT"}}, {"variableRole": "outcome", "observed": {"reference": "#NCT03640312-BaselineMeasure-9", "type": "EvidenceVariable", "display": "Systolic Blood Pressure, mm Hg"}}], "statistic": [{"statisticType": {"coding": [{"system": "https://fevir.net/sevco", "code": "STATO:0000573", "display": "mean"}]}, "quantity": {"value": 137.6, "unit": "mm Hg"}, "sampleSize": {"knownDataCount": 32}, "attributeEstimate": [{"type": {"text": "Standard Deviation"}, "quantity": {"value": 11.8, "unit": "mm Hg"}}]}]}, {"resourceType": "Evidence", "id": "NCT03640312-BaselineMeasure-9-BG001", "meta": {"profile": ["http://hl7.org/fhir/uv/ebm/StructureDefinition/non-comparative-evidence"]}, "name": "NCT03640312_BaselineMeasure_9_BG001", "title": "Systolic Blood Pressure, mm Hg for Candesartan at baseline in NCT03640312", "status": "active", "variableDefinition": [{"variableRole": "population", "observed": {"reference": "#BG001", "type": "Group", "display": "Candesartan"}}, {"variableRole": "outcome", "observed": {"reference": "#NCT03640312-BaselineMeasure-9", "type": "EvidenceVariable", "display": "Systolic Blood Pressure, mm Hg"}}], "statistic": [{"statisticType": {"coding": [{"system": "https://fevir.net/sevco", "code": "STATO:0000573", "display": "mean"}]}, "quantity": {"value": 138.7, "unit": "mm Hg"}, "sampleSize": {"knownDataCount": 30}, "attributeEstimate": [{"type": {"text": "Standard Deviation"}, "quantity": {"value": 10.8, "unit": "mm Hg"}}]}]}, {"resourceType": "Evidence", "id": "NCT03640312-BaselineMeasure-9-BG002", "meta": {"profile": ["http://hl7.org/fhir/uv/ebm/StructureDefinition/non-comparative-evidence"]}, "name": "NCT03640312_BaselineMeasure_9_BG002", "title": "Systolic Blood Pressure, mm Hg for Total at baseline in NCT03640312", "status": "active", "variableDefinition": [{"variableRole": "population", "observed": {"reference": "#BG002", "type": "Group", "display": "Total"}}, {"variableRole": "outcome", "observed": {"reference": "#NCT03640312-BaselineMeasure-9", "type": "EvidenceVariable", "display": "Systolic Blood Pressure, mm Hg"}}], "statistic": [{"statisticType": {"coding": [{"system": "https://fevir.net/sevco", "code": "STATO:0000573", "display": "mean"}]}, "quantity": {"value": 138.1, "unit": "mm Hg"}, "sampleSize": {"knownDataCount": 62}, "attributeEstimate": [{"type": {"text": "Standard Deviation"}, "quantity": {"value": 11.2, "unit": "mm Hg"}}]}]}, {"resourceType": "Evidence", "id": "NCT03640312-BaselineMeasure-10-BG000", "meta": {"profile": ["http://hl7.org/fhir/uv/ebm/StructureDefinition/non-comparative-evidence"]}, "name": "NCT03640312_BaselineMeasure_10_BG000", "title": "Diastolic Blood Pressure, mm Hg for QUARTET LDQT at baseline in NCT03640312", "status": "active", "variableDefinition": [{"variableRole": "population", "observed": {"reference": "#BG000", "type": "Group", "display": "QUARTET LDQT"}}, {"variableRole": "outcome", "observed": {"reference": "#NCT03640312-BaselineMeasure-10", "type": "EvidenceVariable", "display": "Diastolic Blood Pressure, mm Hg"}}], "statistic": [{"statisticType": {"coding": [{"system": "https://fevir.net/sevco", "code": "STATO:0000573", "display": "mean"}]}, "quantity": {"value": 84.3, "unit": "mm Hg"}, "sampleSize": {"knownDataCount": 32}, "attributeEstimate": [{"type": {"text": "Standard Deviation"}, "quantity": {"value": 9.6, "unit": "mm Hg"}}]}]}, {"resourceType": "Evidence", "id": "NCT03640312-BaselineMeasure-10-BG001", "meta": {"profile": ["http://hl7.org/fhir/uv/ebm/StructureDefinition/non-comparative-evidence"]}, "name": "NCT03640312_BaselineMeasure_10_BG001", "title": "Diastolic Blood Pressure, mm Hg for Candesartan at baseline in NCT03640312", "status": "active", "variableDefinition": [{"variableRole": "population", "observed": {"reference": "#BG001", "type": "Group", "display": "Candesartan"}}, {"variableRole": "outcome", "observed": {"reference": "#NCT03640312-BaselineMeasure-10", "type": "EvidenceVariable", "display": "Diastolic Blood Pressure, mm Hg"}}], "statistic": [{"statisticType": {"coding": [{"system": "https://fevir.net/sevco", "code": "STATO:0000573", "display": "mean"}]}, "quantity": {"value": 84.3, "unit": "mm Hg"}, "sampleSize": {"knownDataCount": 30}, "attributeEstimate": [{"type": {"text": "Standard Deviation"}, "quantity": {"value": 11.5, "unit": "mm Hg"}}]}]}, {"resourceType": "Evidence", "id": "NCT03640312-BaselineMeasure-10-BG002", "meta": {"profile": ["http://hl7.org/fhir/uv/ebm/StructureDefinition/non-comparative-evidence"]}, "name": "NCT03640312_BaselineMeasure_10_BG002", "title": "Diastolic Blood Pressure, mm Hg for Total at baseline in NCT03640312", "status": "active", "variableDefinition": [{"variableRole": "population", "observed": {"reference": "#BG002", "type": "Group", "display": "Total"}}, {"variableRole": "outcome", "observed": {"reference": "#NCT03640312-BaselineMeasure-10", "type": "EvidenceVariable", "display": "Diastolic Blood Pressure, mm Hg"}}], "statistic": [{"statisticType": {"coding": [{"system": "https://fevir.net/sevco", "code": "STATO:0000573", "display": "mean"}]}, "quantity": {"value": 84.3, "unit": "mm Hg"}, "sampleSize": {"knownDataCount": 62}, "attributeEstimate": [{"type": {"text": "Standard Deviation"}, "quantity": {"value": 10.5, "unit": "mm Hg"}}]}]}], "identifier": [{"type": {"text": "FEvIR Object Identifier", "coding": [{"system": "http://terminology.hl7.org/CodeSystem/v2-0203", "code": "ACSN", "display": "Accession ID"}]}, "system": "https://fevir.net/FOI", "value": "370503", "assigner": {"display": "Computable Publishing LLC"}}, {"type": {"text": "FEvIR Linking Identifier"}, "system": "https://fevir.net/FLI", "value": "NCT03640312-baseline-measure-report", "assigner": {"display": "Computable Publishing LLC"}}], "status": "final", "type": {"coding": [{"system": "https://fevir.net/resources/CodeSystem/179423", "code": "BaselineMeasureReport", "display": "BaselineMeasureReport"}], "text": "Baseline Measure Report"}, "author": [{"display": "[No author listed.]"}], "title": "Baseline Characteristics Report for NCT03640312", "id": "370503", "url": "https://fevir.net/resources/Composition/370503", "date": "2025-09-13T09:52:10.411Z", "custodian": {"reference": "Organization/118079", "type": "Organization", "display": "Computable Publishing LLC"}, "relatesTo": [{"type": "cite-as", "targetMarkdown": "Baseline Characteristics Report for NCT03640312 [Database Entry: FHIR Composition Resource]. Contributors: [No author listed.] [Authors/Creators]. In: Fast Evidence Interoperability Resources (FEvIR) Platform, FOI 370503. Revised 2025-09-13. Available at: https://fevir.net/resources/Composition/370503. Computable resource at: https://fevir.net/resources/Composition/370503#json."}], "extension": [{"url": "http://hl7.org/fhir/uv/ebm/StructureDefinition/artifact-publication-status", "valueCodeableConcept": {"coding": [{"system": "http://terminology.hl7.org/CodeSystem/cited-artifact-status-type", "code": "active", "display": "Active"}]}}], "section": [{"title": "Baseline Group List", "code": {"coding": [{"system": "https://fevir.net/resources/CodeSystem/179423", "code": "groups", "display": "Groups"}], "text": "BaselineGroupList"}, "text": {"status": "generated", "div": "<div xmlns=\"http://www.w3.org/1999/xhtml\">QUARTET LDQT, Candesartan, Total</div>"}, "entry": [{"reference": "#BG000", "type": "Group", "display": "QUARTET LDQT"}, {"reference": "#BG001", "type": "Group", "display": "Candesartan"}, {"reference": "#BG002", "type": "Group", "display": "Total"}]}, {"title": "Age, Continuous", "code": {"coding": [{"system": "https://fevir.net/resources/CodeSystem/179423", "code": "results", "display": "Results"}]}, "focus": {"reference": "#NCT03640312-BaselineMeasure-0", "type": "EvidenceVariable", "display": "Age, Continuous"}, "text": {"status": "empty", "div": "<div xmlns=\"http://www.w3.org/1999/xhtml\"><p>[No data.]</p></div>"}, "entry": [{"reference": "#NCT03640312-BaselineMeasure-0-BG000", "type": "Evidence", "display": "Age, Continuous for QUARTET LDQT at baseline in NCT03640312"}, {"reference": "#NCT03640312-BaselineMeasure-0-BG001", "type": "Evidence", "display": "Age, Continuous for Candesartan at baseline in NCT03640312"}, {"reference": "#NCT03640312-BaselineMeasure-0-BG002", "type": "Evidence", "display": "Age, Continuous for Total at baseline in NCT03640312"}]}, {"title": "Sex: Female, Male", "code": {"coding": [{"system": "https://fevir.net/resources/CodeSystem/179423", "code": "results", "display": "Results"}]}, "focus": {"reference": "#NCT03640312-BaselineMeasure-1", "type": "EvidenceVariable", "display": "Sex: Female, Male"}, "text": {"status": "empty", "div": "<div xmlns=\"http://www.w3.org/1999/xhtml\"><p>[No data.]</p></div>"}, "entry": [{"reference": "#NCT03640312-BaselineMeasure-1-BG000", "type": "Evidence", "display": "Sex: Female, Male for QUARTET LDQT at baseline in NCT03640312"}, {"reference": "#NCT03640312-BaselineMeasure-1-BG001", "type": "Evidence", "display": "Sex: Female, Male for Candesartan at baseline in NCT03640312"}, {"reference": "#NCT03640312-BaselineMeasure-1-BG002", "type": "Evidence", "display": "Sex: Female, Male for Total at baseline in NCT03640312"}]}, {"title": "Race/Ethnicity, Customized", "code": {"coding": [{"system": "https://fevir.net/resources/CodeSystem/179423", "code": "results", "display": "Results"}]}, "focus": {"reference": "#NCT03640312-BaselineMeasure-2", "type": "EvidenceVariable", "display": "Race/Ethnicity, Customized"}, "text": {"status": "empty", "div": "<div xmlns=\"http://www.w3.org/1999/xhtml\"><p>[No data.]</p></div>"}, "entry": [{"reference": "#NCT03640312-BaselineMeasure-2-BG000", "type": "Evidence", "display": "Race/Ethnicity, Customized for QUARTET LDQT at baseline in NCT03640312"}, {"reference": "#NCT03640312-BaselineMeasure-2-BG001", "type": "Evidence", "display": "Race/Ethnicity, Customized for Candesartan at baseline in NCT03640312"}, {"reference": "#NCT03640312-BaselineMeasure-2-BG002", "type": "Evidence", "display": "Race/Ethnicity, Customized for Total at baseline in NCT03640312"}]}, {"title": "Body Mass Index, kg/m^2", "code": {"coding": [{"system": "https://fevir.net/resources/CodeSystem/179423", "code": "results", "display": "Results"}]}, "focus": {"reference": "#NCT03640312-BaselineMeasure-3", "type": "EvidenceVariable", "display": "Body Mass Index, kg/m^2"}, "text": {"status": "empty", "div": "<div xmlns=\"http://www.w3.org/1999/xhtml\"><p>[No data.]</p></div>"}, "entry": [{"reference": "#NCT03640312-BaselineMeasure-3-BG000", "type": "Evidence", "display": "Body Mass Index, kg/m^2 for QUARTET LDQT at baseline in NCT03640312"}, {"reference": "#NCT03640312-BaselineMeasure-3-BG001", "type": "Evidence", "display": "Body Mass Index, kg/m^2 for Candesartan at baseline in NCT03640312"}, {"reference": "#NCT03640312-BaselineMeasure-3-BG002", "type": "Evidence", "display": "Body Mass Index, kg/m^2 for Total at baseline in NCT03640312"}]}, {"title": "Heart rate, beats per minute", "code": {"coding": [{"system": "https://fevir.net/resources/CodeSystem/179423", "code": "results", "display": "Results"}]}, "focus": {"reference": "#NCT03640312-BaselineMeasure-4", "type": "EvidenceVariable", "display": "Heart rate, beats per minute"}, "text": {"status": "empty", "div": "<div xmlns=\"http://www.w3.org/1999/xhtml\"><p>[No data.]</p></div>"}, "entry": [{"reference": "#NCT03640312-BaselineMeasure-4-BG000", "type": "Evidence", "display": "Heart rate, beats per minute for QUARTET LDQT at baseline in NCT03640312"}, {"reference": "#NCT03640312-BaselineMeasure-4-BG001", "type": "Evidence", "display": "Heart rate, beats per minute for Candesartan at baseline in NCT03640312"}, {"reference": "#NCT03640312-BaselineMeasure-4-BG002", "type": "Evidence", "display": "Heart rate, beats per minute for Total at baseline in NCT03640312"}]}, {"title": "History of diabetes, n (%)", "code": {"coding": [{"system": "https://fevir.net/resources/CodeSystem/179423", "code": "results", "display": "Results"}]}, "focus": {"reference": "#NCT03640312-BaselineMeasure-5", "type": "EvidenceVariable", "display": "History of diabetes, n (%)"}, "text": {"status": "empty", "div": "<div xmlns=\"http://www.w3.org/1999/xhtml\"><p>[No data.]</p></div>"}, "entry": [{"reference": "#NCT03640312-BaselineMeasure-5-BG000", "type": "Evidence", "display": "History of diabetes, n (%) for QUARTET LDQT at baseline in NCT03640312"}, {"reference": "#NCT03640312-BaselineMeasure-5-BG001", "type": "Evidence", "display": "History of diabetes, n (%) for Candesartan at baseline in NCT03640312"}, {"reference": "#NCT03640312-BaselineMeasure-5-BG002", "type": "Evidence", "display": "History of diabetes, n (%) for Total at baseline in NCT03640312"}]}, {"title": "History of smoking, n (%)", "code": {"coding": [{"system": "https://fevir.net/resources/CodeSystem/179423", "code": "results", "display": "Results"}]}, "focus": {"reference": "#NCT03640312-BaselineMeasure-6", "type": "EvidenceVariable", "display": "History of smoking, n (%)"}, "text": {"status": "empty", "div": "<div xmlns=\"http://www.w3.org/1999/xhtml\"><p>[No data.]</p></div>"}, "entry": [{"reference": "#NCT03640312-BaselineMeasure-6-BG000", "type": "Evidence", "display": "History of smoking, n (%) for QUARTET LDQT at baseline in NCT03640312"}, {"reference": "#NCT03640312-BaselineMeasure-6-BG001", "type": "Evidence", "display": "History of smoking, n (%) for Candesartan at baseline in NCT03640312"}, {"reference": "#NCT03640312-BaselineMeasure-6-BG002", "type": "Evidence", "display": "History of smoking, n (%) for Total at baseline in NCT03640312"}]}, {"title": "History of depression, n (%)", "code": {"coding": [{"system": "https://fevir.net/resources/CodeSystem/179423", "code": "results", "display": "Results"}]}, "focus": {"reference": "#NCT03640312-BaselineMeasure-7", "type": "EvidenceVariable", "display": "History of depression, n (%)"}, "text": {"status": "empty", "div": "<div xmlns=\"http://www.w3.org/1999/xhtml\"><p>[No data.]</p></div>"}, "entry": [{"reference": "#NCT03640312-BaselineMeasure-7-BG000", "type": "Evidence", "display": "History of depression, n (%) for QUARTET LDQT at baseline in NCT03640312"}, {"reference": "#NCT03640312-BaselineMeasure-7-BG001", "type": "Evidence", "display": "History of depression, n (%) for Candesartan at baseline in NCT03640312"}, {"reference": "#NCT03640312-BaselineMeasure-7-BG002", "type": "Evidence", "display": "History of depression, n (%) for Total at baseline in NCT03640312"}]}, {"title": "Weekly alcohol use, n (%)", "code": {"coding": [{"system": "https://fevir.net/resources/CodeSystem/179423", "code": "results", "display": "Results"}]}, "focus": {"reference": "#NCT03640312-BaselineMeasure-8", "type": "EvidenceVariable", "display": "Weekly alcohol use, n (%)"}, "text": {"status": "empty", "div": "<div xmlns=\"http://www.w3.org/1999/xhtml\"><p>[No data.]</p></div>"}, "entry": [{"reference": "#NCT03640312-BaselineMeasure-8-BG000", "type": "Evidence", "display": "Weekly alcohol use, n (%) for QUARTET LDQT at baseline in NCT03640312"}, {"reference": "#NCT03640312-BaselineMeasure-8-BG001", "type": "Evidence", "display": "Weekly alcohol use, n (%) for Candesartan at baseline in NCT03640312"}, {"reference": "#NCT03640312-BaselineMeasure-8-BG002", "type": "Evidence", "display": "Weekly alcohol use, n (%) for Total at baseline in NCT03640312"}]}, {"title": "Systolic Blood Pressure, mm Hg", "code": {"coding": [{"system": "https://fevir.net/resources/CodeSystem/179423", "code": "results", "display": "Results"}]}, "focus": {"reference": "#NCT03640312-BaselineMeasure-9", "type": "EvidenceVariable", "display": "Systolic Blood Pressure, mm Hg"}, "text": {"status": "empty", "div": "<div xmlns=\"http://www.w3.org/1999/xhtml\"><p>[No data.]</p></div>"}, "entry": [{"reference": "#NCT03640312-BaselineMeasure-9-BG000", "type": "Evidence", "display": "Systolic Blood Pressure, mm Hg for QUARTET LDQT at baseline in NCT03640312"}, {"reference": "#NCT03640312-BaselineMeasure-9-BG001", "type": "Evidence", "display": "Systolic Blood Pressure, mm Hg for Candesartan at baseline in NCT03640312"}, {"reference": "#NCT03640312-BaselineMeasure-9-BG002", "type": "Evidence", "display": "Systolic Blood Pressure, mm Hg for Total at baseline in NCT03640312"}]}, {"title": "Diastolic Blood Pressure, mm Hg", "code": {"coding": [{"system": "https://fevir.net/resources/CodeSystem/179423", "code": "results", "display": "Results"}]}, "focus": {"reference": "#NCT03640312-BaselineMeasure-10", "type": "EvidenceVariable", "display": "Diastolic Blood Pressure, mm Hg"}, "text": {"status": "empty", "div": "<div xmlns=\"http://www.w3.org/1999/xhtml\"><p>[No data.]</p></div>"}, "entry": [{"reference": "#NCT03640312-BaselineMeasure-10-BG000", "type": "Evidence", "display": "Diastolic Blood Pressure, mm Hg for QUARTET LDQT at baseline in NCT03640312"}, {"reference": "#NCT03640312-BaselineMeasure-10-BG001", "type": "Evidence", "display": "Diastolic Blood Pressure, mm Hg for Candesartan at baseline in NCT03640312"}, {"reference": "#NCT03640312-BaselineMeasure-10-BG002", "type": "Evidence", "display": "Diastolic Blood Pressure, mm Hg for Total at baseline in NCT03640312"}]}]}