{"id": "399874", "url": "https://fevir.net/resources/Composition/399874", "date": "2025-12-11T20:35:21.032Z", "meta": {"profile": ["http://hl7.org/fhir/uv/ebm/StructureDefinition/outcome-measure-report"], "versionId": "5", "lastUpdated": "2025-12-11T20:35:21.032Z"}, "type": {"text": "Outcome Measure Report", "coding": [{"code": "OutcomeMeasureReport", "system": "https://fevir.net/resources/CodeSystem/179423", "display": "OutcomeMeasureReport"}]}, "title": "Adverse Events Report for NCT03421379", "author": [{"display": "[No author listed.]"}], "status": "final", "contained": [{"id": "NCT03421379-AllCauseMortality", "meta": {"profile": ["http://hl7.org/fhir/uv/ebm/StructureDefinition/variable-definition"]}, "title": "All-cause mortality (timeframe for NCT03421379)", "status": "active", "timing": {"text": "From Baseline to End of Follow-up (Up to 2 Months)"}, "definition": {"concept": {"text": "All-cause mortality"}}, "resourceType": "EvidenceVariable", "handling": "boolean"}, {"id": "NCT03421379-SeriousAdverseEvents", "meta": {"profile": ["http://hl7.org/fhir/uv/ebm/StructureDefinition/variable-definition"]}, "title": "Serious Adverse Events (timeframe for NCT03421379)", "status": "active", "timing": {"text": "From Baseline to End of Follow-up (Up to 2 Months)"}, "definition": {"concept": {"text": "Serious Adverse Events"}}, "resourceType": "EvidenceVariable", "handling": "boolean"}, {"id": "NCT03421379-OtherAdverseEvents", "meta": {"profile": ["http://hl7.org/fhir/uv/ebm/StructureDefinition/variable-definition"]}, "title": "Other Adverse Events (timeframe for NCT03421379)", "status": "active", "timing": {"text": "From Baseline to End of Follow-up (Up to 2 Months)"}, "definition": {"concept": {"text": "Other Adverse Events"}}, "resourceType": "EvidenceVariable", "handling": "boolean"}, {"id": "NCT03421379-AllCauseMortality-EG000", "meta": {"profile": ["http://hl7.org/fhir/uv/ebm/StructureDefinition/non-comparative-evidence"]}, "name": "NCT03421379_AllCauseMortality_EG000", "title": "All-cause mortality for Glucagon Nasal Powder in NCT03421379", "status": "active", "statistic": [{"quantity": {"value": 0}, "sampleSize": {"knownDataCount": 71}, "statisticType": {"text": "Percentage"}, "numberAffected": 0}], "resourceType": "Evidence", "variableDefinition": [{"observed": {"display": "A single dose of 3 mg glucagon nasal powder was administered intranasally"}, "description": "Glucagon Nasal Powder", "variableRole": "population"}, {"note": [{"text": "All randomized participants who received at least one dose of study drug."}], "observed": {"type": "EvidenceVariable", "reference": "#NCT03421379-AllCauseMortality"}, "variableRole": "outcome"}]}, {"id": "NCT03421379-SeriousAdverseEvents-EG000", "meta": {"profile": ["http://hl7.org/fhir/uv/ebm/StructureDefinition/non-comparative-evidence"]}, "name": "NCT03421379_SeriousAdverseEvents_EG000", "title": "Serious Adverse Events for Glucagon Nasal Powder in NCT03421379", "status": "active", "statistic": [{"quantity": {"value": 0}, "sampleSize": {"knownDataCount": 71}, "statisticType": {"text": "Percentage"}, "numberAffected": 0}], "resourceType": "Evidence", "variableDefinition": [{"observed": {"display": "A single dose of 3 mg glucagon nasal powder was administered intranasally"}, "description": "Glucagon Nasal Powder", "variableRole": "population"}, {"note": [{"text": "All randomized participants who received at least one dose of study drug."}], "observed": {"type": "EvidenceVariable", "reference": "#NCT03421379-SeriousAdverseEvents"}, "variableRole": "outcome"}]}, {"id": "NCT03421379-OtherAdverseEvents-EG000", "meta": {"profile": ["http://hl7.org/fhir/uv/ebm/StructureDefinition/non-comparative-evidence"]}, "name": "NCT03421379_OtherAdverseEvents_EG000", "title": "Other Adverse Events for Glucagon Nasal Powder in NCT03421379", "status": "active", "statistic": [{"quantity": {"value": 0.2113}, "sampleSize": {"knownDataCount": 71}, "statisticType": {"text": "Percentage"}, "numberAffected": 15}], "resourceType": "Evidence", "variableDefinition": [{"observed": {"display": "A single dose of 3 mg glucagon nasal powder was administered intranasally"}, "description": "Glucagon Nasal Powder", "variableRole": "population"}, {"note": [{"text": "All randomized participants who received at least one dose of study drug."}], "observed": {"type": "EvidenceVariable", "reference": "#NCT03421379-OtherAdverseEvents"}, "variableRole": "outcome"}]}, {"id": "NCT03421379-AllCauseMortality-EG001", "meta": {"profile": ["http://hl7.org/fhir/uv/ebm/StructureDefinition/non-comparative-evidence"]}, "name": "NCT03421379_AllCauseMortality_EG001", "title": "All-cause mortality for Glucagon Hydrochloride Solution in NCT03421379", "status": "active", "statistic": [{"quantity": {"value": 0}, "sampleSize": {"knownDataCount": 70}, "statisticType": {"text": "Percentage"}, "numberAffected": 0}], "resourceType": "Evidence", "variableDefinition": [{"observed": {"display": "A single dose of 1 mg glucagon hydrochloride solution was administered IM"}, "description": "Glucagon Hydrochloride Solution", "variableRole": "population"}, {"note": [{"text": "All randomized participants who received at least one dose of study drug."}], "observed": {"type": "EvidenceVariable", "reference": "#NCT03421379-AllCauseMortality"}, "variableRole": "outcome"}]}, {"id": "NCT03421379-SeriousAdverseEvents-EG001", "meta": {"profile": ["http://hl7.org/fhir/uv/ebm/StructureDefinition/non-comparative-evidence"]}, "name": "NCT03421379_SeriousAdverseEvents_EG001", "title": "Serious Adverse Events for Glucagon Hydrochloride Solution in NCT03421379", "status": "active", "statistic": [{"quantity": {"value": 0.0143}, "sampleSize": {"knownDataCount": 70}, "statisticType": {"text": "Percentage"}, "numberAffected": 1}], "resourceType": "Evidence", "variableDefinition": [{"observed": {"display": "A single dose of 1 mg glucagon hydrochloride solution was administered IM"}, "description": "Glucagon Hydrochloride Solution", "variableRole": "population"}, {"note": [{"text": "All randomized participants who received at least one dose of study drug."}], "observed": {"type": "EvidenceVariable", "reference": "#NCT03421379-SeriousAdverseEvents"}, "variableRole": "outcome"}]}, {"id": "NCT03421379-OtherAdverseEvents-EG001", "meta": {"profile": ["http://hl7.org/fhir/uv/ebm/StructureDefinition/non-comparative-evidence"]}, "name": "NCT03421379_OtherAdverseEvents_EG001", "title": "Other Adverse Events for Glucagon Hydrochloride Solution in NCT03421379", "status": "active", "statistic": [{"quantity": {"value": 0.1857}, "sampleSize": {"knownDataCount": 70}, "statisticType": {"text": "Percentage"}, "numberAffected": 13}], "resourceType": "Evidence", "variableDefinition": [{"observed": {"display": "A single dose of 1 mg glucagon hydrochloride solution was administered IM"}, "description": "Glucagon Hydrochloride Solution", "variableRole": "population"}, {"note": [{"text": "All randomized participants who received at least one dose of study drug."}], "observed": {"type": "EvidenceVariable", "reference": "#NCT03421379-OtherAdverseEvents"}, "variableRole": "outcome"}]}, {"id": "NCT03421379-SeriousAdverseEvent-0-EG000", "meta": {"profile": ["http://hl7.org/fhir/uv/ebm/StructureDefinition/non-comparative-evidence"]}, "name": "NCT03421379_SeriousAdverseEvent_0_EG000", "title": "Vertigo positional as serious adverse event for Glucagon Nasal Powder in NCT03421379", "status": "active", "statistic": [{"quantity": {"value": 0}, "sampleSize": {"knownDataCount": 71}, "statisticType": {"text": "Percentage"}, "numberAffected": 0, "numberOfEvents": 0}], "resourceType": "Evidence", "variableDefinition": [{"observed": {"display": "A single dose of 3 mg glucagon nasal powder was administered intranasally"}, "description": "Glucagon Nasal Powder", "variableRole": "population"}, {"note": [{"text": "All randomized participants who received at least one dose of study drug."}], "observed": {"type": "EvidenceVariable", "reference": "#NCT03421379-SeriousAdverseEvent-0"}, "variableRole": "outcome"}]}, {"id": "NCT03421379-SeriousAdverseEvent-0-EG001", "meta": {"profile": ["http://hl7.org/fhir/uv/ebm/StructureDefinition/non-comparative-evidence"]}, "name": "NCT03421379_SeriousAdverseEvent_0_EG001", "title": "Vertigo positional as serious adverse event for Glucagon Hydrochloride Solution in NCT03421379", "status": "active", "statistic": [{"quantity": {"value": 0.0143}, "sampleSize": {"knownDataCount": 70}, "statisticType": {"text": "Percentage"}, "numberAffected": 1, "numberOfEvents": 1}], "resourceType": "Evidence", "variableDefinition": [{"observed": {"display": "A single dose of 1 mg glucagon hydrochloride solution was administered IM"}, "description": "Glucagon Hydrochloride Solution", "variableRole": "population"}, {"note": [{"text": "All randomized participants who received at least one dose of study drug."}], "observed": {"type": "EvidenceVariable", "reference": "#NCT03421379-SeriousAdverseEvent-0"}, "variableRole": "outcome"}]}, {"id": "NCT03421379-SeriousAdverseEvent-0", "meta": {"profile": ["http://hl7.org/fhir/uv/ebm/StructureDefinition/variable-definition"]}, "title": "Vertigo positional as serious adverse event", "status": "active", "timing": {"text": "From Baseline to End of Follow-up (Up to 2 Months)"}, "classifier": [{"text": "Serious Adverse Event"}, {"text": "Ear and labyrinth disorders"}], "definition": {"concept": {"text": "Vertigo positional as serious adverse event"}}, "resourceType": "EvidenceVariable", "definitionModifier": [{"code": {"text": "Adverse event assessment type"}, "valueCodeableConcept": {"coding": [{"code": "systematic-assessment", "system": "http://hl7.org/fhir/definition-method", "display": "Systematic Assessment"}]}}, {"code": {"text": "Source Vocabulary for Adverse Event Definition"}, "valueCodeableConcept": {"text": "MedDRA 18.1"}}], "handling": "boolean"}, {"id": "NCT03421379-OtherAdverseEvent-0-EG000", "meta": {"profile": ["http://hl7.org/fhir/uv/ebm/StructureDefinition/non-comparative-evidence"]}, "name": "NCT03421379_OtherAdverseEvent_0_EG000", "title": "Ear pain as other adverse event for Glucagon Nasal Powder in NCT03421379", "status": "active", "statistic": [{"quantity": {"value": 0.0282}, "sampleSize": {"knownDataCount": 71}, "statisticType": {"text": "Percentage"}, "numberAffected": 2, "numberOfEvents": 2}], "resourceType": "Evidence", "variableDefinition": [{"observed": {"display": "A single dose of 3 mg glucagon nasal powder was administered intranasally"}, "description": "Glucagon Nasal Powder", "variableRole": "population"}, {"note": [{"text": "All randomized participants who received at least one dose of study drug."}], "observed": {"type": "EvidenceVariable", "reference": "#NCT03421379-OtherAdverseEvent-0"}, "variableRole": "outcome"}]}, {"id": "NCT03421379-OtherAdverseEvent-0-EG001", "meta": {"profile": ["http://hl7.org/fhir/uv/ebm/StructureDefinition/non-comparative-evidence"]}, "name": "NCT03421379_OtherAdverseEvent_0_EG001", "title": "Ear pain as other adverse event for Glucagon Hydrochloride Solution in NCT03421379", "status": "active", "statistic": [{"quantity": {"value": 0}, "sampleSize": {"knownDataCount": 70}, "statisticType": {"text": "Percentage"}, "numberAffected": 0, "numberOfEvents": 0}], "resourceType": "Evidence", "variableDefinition": [{"observed": {"display": "A single dose of 1 mg glucagon hydrochloride solution was administered IM"}, "description": "Glucagon Hydrochloride Solution", "variableRole": "population"}, {"note": [{"text": "All randomized participants who received at least one dose of study drug."}], "observed": {"type": "EvidenceVariable", "reference": "#NCT03421379-OtherAdverseEvent-0"}, "variableRole": "outcome"}]}, {"id": "NCT03421379-OtherAdverseEvent-0", "meta": {"profile": ["http://hl7.org/fhir/uv/ebm/StructureDefinition/variable-definition"]}, "title": "Ear pain as other adverse event", "status": "active", "timing": {"text": "From Baseline to End of Follow-up (Up to 2 Months)"}, "classifier": [{"text": "Other Adverse Event"}, {"text": "Ear and labyrinth disorders"}], "definition": {"concept": {"text": "Ear pain as other adverse event"}}, "resourceType": "EvidenceVariable", "definitionModifier": [{"code": {"text": "Adverse event assessment type"}, "valueCodeableConcept": {"coding": [{"code": "systematic-assessment", "system": "http://hl7.org/fhir/definition-method", "display": "Systematic Assessment"}]}}, {"code": {"text": "Source Vocabulary for Adverse Event Definition"}, "valueCodeableConcept": {"text": "MedDRA 18.1"}}], "handling": "boolean"}, {"id": "NCT03421379-OtherAdverseEvent-1-EG000", "meta": {"profile": ["http://hl7.org/fhir/uv/ebm/StructureDefinition/non-comparative-evidence"]}, "name": "NCT03421379_OtherAdverseEvent_1_EG000", "title": "Eye pain as other adverse event for Glucagon Nasal Powder in NCT03421379", "status": "active", "statistic": [{"quantity": {"value": 0.0141}, "sampleSize": {"knownDataCount": 71}, "statisticType": {"text": "Percentage"}, "numberAffected": 1, "numberOfEvents": 1}], "resourceType": "Evidence", "variableDefinition": [{"observed": {"display": "A single dose of 3 mg glucagon nasal powder was administered intranasally"}, "description": "Glucagon Nasal Powder", "variableRole": "population"}, {"note": [{"text": "All randomized participants who received at least one dose of study drug."}], "observed": {"type": "EvidenceVariable", "reference": "#NCT03421379-OtherAdverseEvent-1"}, "variableRole": "outcome"}]}, {"id": "NCT03421379-OtherAdverseEvent-1-EG001", "meta": {"profile": ["http://hl7.org/fhir/uv/ebm/StructureDefinition/non-comparative-evidence"]}, "name": "NCT03421379_OtherAdverseEvent_1_EG001", "title": "Eye pain as other adverse event for Glucagon Hydrochloride Solution in NCT03421379", "status": "active", "statistic": [{"quantity": {"value": 0}, "sampleSize": {"knownDataCount": 70}, "statisticType": {"text": "Percentage"}, "numberAffected": 0, "numberOfEvents": 0}], "resourceType": "Evidence", "variableDefinition": [{"observed": {"display": "A single dose of 1 mg glucagon hydrochloride solution was administered IM"}, "description": "Glucagon Hydrochloride Solution", "variableRole": "population"}, {"note": [{"text": "All randomized participants who received at least one dose of study drug."}], "observed": {"type": "EvidenceVariable", "reference": "#NCT03421379-OtherAdverseEvent-1"}, "variableRole": "outcome"}]}, {"id": "NCT03421379-OtherAdverseEvent-1", "meta": {"profile": ["http://hl7.org/fhir/uv/ebm/StructureDefinition/variable-definition"]}, "title": "Eye pain as other adverse event", "status": "active", "timing": {"text": "From Baseline to End of Follow-up (Up to 2 Months)"}, "classifier": [{"text": "Other Adverse Event"}, {"text": "Eye disorders"}], "definition": {"concept": {"text": "Eye pain as other adverse event"}}, "resourceType": "EvidenceVariable", "definitionModifier": [{"code": {"text": "Adverse event assessment type"}, "valueCodeableConcept": {"coding": [{"code": "systematic-assessment", "system": "http://hl7.org/fhir/definition-method", "display": "Systematic Assessment"}]}}, {"code": {"text": "Source Vocabulary for Adverse Event Definition"}, "valueCodeableConcept": {"text": "MedDRA 18.1"}}], "handling": "boolean"}, {"id": "NCT03421379-OtherAdverseEvent-2-EG000", "meta": {"profile": ["http://hl7.org/fhir/uv/ebm/StructureDefinition/non-comparative-evidence"]}, "name": "NCT03421379_OtherAdverseEvent_2_EG000", "title": "Eye pruritus as other adverse event for Glucagon Nasal Powder in NCT03421379", "status": "active", "statistic": [{"quantity": {"value": 0.0141}, "sampleSize": {"knownDataCount": 71}, "statisticType": {"text": "Percentage"}, "numberAffected": 1, "numberOfEvents": 1}], "resourceType": "Evidence", "variableDefinition": [{"observed": {"display": "A single dose of 3 mg glucagon nasal powder was administered intranasally"}, "description": "Glucagon Nasal Powder", "variableRole": "population"}, {"note": [{"text": "All randomized participants who received at least one dose of study drug."}], "observed": {"type": "EvidenceVariable", "reference": "#NCT03421379-OtherAdverseEvent-2"}, "variableRole": "outcome"}]}, {"id": "NCT03421379-OtherAdverseEvent-2-EG001", "meta": {"profile": ["http://hl7.org/fhir/uv/ebm/StructureDefinition/non-comparative-evidence"]}, "name": "NCT03421379_OtherAdverseEvent_2_EG001", "title": "Eye pruritus as other adverse event for Glucagon Hydrochloride Solution in NCT03421379", "status": "active", "statistic": [{"quantity": {"value": 0}, "sampleSize": {"knownDataCount": 70}, "statisticType": {"text": "Percentage"}, "numberAffected": 0, "numberOfEvents": 0}], "resourceType": "Evidence", "variableDefinition": [{"observed": {"display": "A single dose of 1 mg glucagon hydrochloride solution was administered IM"}, "description": "Glucagon Hydrochloride Solution", "variableRole": "population"}, {"note": [{"text": "All randomized participants who received at least one dose of study drug."}], "observed": {"type": "EvidenceVariable", "reference": "#NCT03421379-OtherAdverseEvent-2"}, "variableRole": "outcome"}]}, {"id": "NCT03421379-OtherAdverseEvent-2", "meta": {"profile": ["http://hl7.org/fhir/uv/ebm/StructureDefinition/variable-definition"]}, "title": "Eye pruritus as other adverse event", "status": "active", "timing": {"text": "From Baseline to End of Follow-up (Up to 2 Months)"}, "classifier": [{"text": "Other Adverse Event"}, {"text": "Eye disorders"}], "definition": {"concept": {"text": "Eye pruritus as other adverse event"}}, "resourceType": "EvidenceVariable", "definitionModifier": [{"code": {"text": "Adverse event assessment type"}, "valueCodeableConcept": {"coding": [{"code": "systematic-assessment", "system": "http://hl7.org/fhir/definition-method", "display": "Systematic Assessment"}]}}, {"code": {"text": "Source Vocabulary for Adverse Event Definition"}, "valueCodeableConcept": {"text": "MedDRA 18.1"}}], "handling": "boolean"}, {"id": "NCT03421379-OtherAdverseEvent-3-EG000", "meta": {"profile": ["http://hl7.org/fhir/uv/ebm/StructureDefinition/non-comparative-evidence"]}, "name": "NCT03421379_OtherAdverseEvent_3_EG000", "title": "Lacrimation increased as other adverse event for Glucagon Nasal Powder in NCT03421379", "status": "active", "statistic": [{"quantity": {"value": 0.0141}, "sampleSize": {"knownDataCount": 71}, "statisticType": {"text": "Percentage"}, "numberAffected": 1, "numberOfEvents": 1}], "resourceType": "Evidence", "variableDefinition": [{"observed": {"display": "A single dose of 3 mg glucagon nasal powder was administered intranasally"}, "description": "Glucagon Nasal Powder", "variableRole": "population"}, {"note": [{"text": "All randomized participants who received at least one dose of study drug."}], "observed": {"type": "EvidenceVariable", "reference": "#NCT03421379-OtherAdverseEvent-3"}, "variableRole": "outcome"}]}, {"id": "NCT03421379-OtherAdverseEvent-3-EG001", "meta": {"profile": ["http://hl7.org/fhir/uv/ebm/StructureDefinition/non-comparative-evidence"]}, "name": "NCT03421379_OtherAdverseEvent_3_EG001", "title": "Lacrimation increased as other adverse event for Glucagon Hydrochloride Solution in NCT03421379", "status": "active", "statistic": [{"quantity": {"value": 0}, "sampleSize": {"knownDataCount": 70}, "statisticType": {"text": "Percentage"}, "numberAffected": 0, "numberOfEvents": 0}], "resourceType": "Evidence", "variableDefinition": [{"observed": {"display": "A single dose of 1 mg glucagon hydrochloride solution was administered IM"}, "description": "Glucagon Hydrochloride Solution", "variableRole": "population"}, {"note": [{"text": "All randomized participants who received at least one dose of study drug."}], "observed": {"type": "EvidenceVariable", "reference": "#NCT03421379-OtherAdverseEvent-3"}, "variableRole": "outcome"}]}, {"id": "NCT03421379-OtherAdverseEvent-3", "meta": {"profile": ["http://hl7.org/fhir/uv/ebm/StructureDefinition/variable-definition"]}, "title": "Lacrimation increased as other adverse event", "status": "active", "timing": {"text": "From Baseline to End of Follow-up (Up to 2 Months)"}, "classifier": [{"text": "Other Adverse Event"}, {"text": "Eye disorders"}], "definition": {"concept": {"text": "Lacrimation increased as other adverse event"}}, "resourceType": "EvidenceVariable", "definitionModifier": [{"code": {"text": "Adverse event assessment type"}, "valueCodeableConcept": {"coding": [{"code": "systematic-assessment", "system": "http://hl7.org/fhir/definition-method", "display": "Systematic Assessment"}]}}, {"code": {"text": "Source Vocabulary for Adverse Event Definition"}, "valueCodeableConcept": {"text": "MedDRA 18.1"}}], "handling": "boolean"}, {"id": "NCT03421379-OtherAdverseEvent-4-EG000", "meta": {"profile": ["http://hl7.org/fhir/uv/ebm/StructureDefinition/non-comparative-evidence"]}, "name": "NCT03421379_OtherAdverseEvent_4_EG000", "title": "Diarrhoea as other adverse event for Glucagon Nasal Powder in NCT03421379", "status": "active", "statistic": [{"quantity": {"value": 0.0141}, "sampleSize": {"knownDataCount": 71}, "statisticType": {"text": "Percentage"}, "numberAffected": 1, "numberOfEvents": 1}], "resourceType": "Evidence", "variableDefinition": [{"observed": {"display": "A single dose of 3 mg glucagon nasal powder was administered intranasally"}, "description": "Glucagon Nasal Powder", "variableRole": "population"}, {"note": [{"text": "All randomized participants who received at least one dose of study drug."}], "observed": {"type": "EvidenceVariable", "reference": "#NCT03421379-OtherAdverseEvent-4"}, "variableRole": "outcome"}]}, {"id": "NCT03421379-OtherAdverseEvent-4-EG001", "meta": {"profile": ["http://hl7.org/fhir/uv/ebm/StructureDefinition/non-comparative-evidence"]}, "name": "NCT03421379_OtherAdverseEvent_4_EG001", "title": "Diarrhoea as other adverse event for Glucagon Hydrochloride Solution in NCT03421379", "status": "active", "statistic": [{"quantity": {"value": 0}, "sampleSize": {"knownDataCount": 70}, "statisticType": {"text": "Percentage"}, "numberAffected": 0, "numberOfEvents": 0}], "resourceType": "Evidence", "variableDefinition": [{"observed": {"display": "A single dose of 1 mg glucagon hydrochloride solution was administered IM"}, "description": "Glucagon Hydrochloride Solution", "variableRole": "population"}, {"note": [{"text": "All randomized participants who received at least one dose of study drug."}], "observed": {"type": "EvidenceVariable", "reference": "#NCT03421379-OtherAdverseEvent-4"}, "variableRole": "outcome"}]}, {"id": "NCT03421379-OtherAdverseEvent-4", "meta": {"profile": ["http://hl7.org/fhir/uv/ebm/StructureDefinition/variable-definition"]}, "title": "Diarrhoea as other adverse event", "status": "active", "timing": {"text": "From Baseline to End of Follow-up (Up to 2 Months)"}, "classifier": [{"text": "Other Adverse Event"}, {"text": "Gastrointestinal disorders"}], "definition": {"concept": {"text": "Diarrhoea as other adverse event"}}, "resourceType": "EvidenceVariable", "definitionModifier": [{"code": {"text": "Adverse event assessment type"}, "valueCodeableConcept": {"coding": [{"code": "systematic-assessment", "system": "http://hl7.org/fhir/definition-method", "display": "Systematic Assessment"}]}}, {"code": {"text": "Source Vocabulary for Adverse Event Definition"}, "valueCodeableConcept": {"text": "MedDRA 18.1"}}], "handling": "boolean"}, {"id": "NCT03421379-OtherAdverseEvent-5-EG000", "meta": {"profile": ["http://hl7.org/fhir/uv/ebm/StructureDefinition/non-comparative-evidence"]}, "name": "NCT03421379_OtherAdverseEvent_5_EG000", "title": "Nausea as other adverse event for Glucagon Nasal Powder in NCT03421379", "status": "active", "statistic": [{"quantity": {"value": 0.0704}, "sampleSize": {"knownDataCount": 71}, "statisticType": {"text": "Percentage"}, "numberAffected": 5, "numberOfEvents": 5}], "resourceType": "Evidence", "variableDefinition": [{"observed": {"display": "A single dose of 3 mg glucagon nasal powder was administered intranasally"}, "description": "Glucagon Nasal Powder", "variableRole": "population"}, {"note": [{"text": "All randomized participants who received at least one dose of study drug."}], "observed": {"type": "EvidenceVariable", "reference": "#NCT03421379-OtherAdverseEvent-5"}, "variableRole": "outcome"}]}, {"id": "NCT03421379-OtherAdverseEvent-5-EG001", "meta": {"profile": ["http://hl7.org/fhir/uv/ebm/StructureDefinition/non-comparative-evidence"]}, "name": "NCT03421379_OtherAdverseEvent_5_EG001", "title": "Nausea as other adverse event for Glucagon Hydrochloride Solution in NCT03421379", "status": "active", "statistic": [{"quantity": {"value": 0.1571}, "sampleSize": {"knownDataCount": 70}, "statisticType": {"text": "Percentage"}, "numberAffected": 11, "numberOfEvents": 11}], "resourceType": "Evidence", "variableDefinition": [{"observed": {"display": "A single dose of 1 mg glucagon hydrochloride solution was administered IM"}, "description": "Glucagon Hydrochloride Solution", "variableRole": "population"}, {"note": [{"text": "All randomized participants who received at least one dose of study drug."}], "observed": {"type": "EvidenceVariable", "reference": "#NCT03421379-OtherAdverseEvent-5"}, "variableRole": "outcome"}]}, {"id": "NCT03421379-OtherAdverseEvent-5", "meta": {"profile": ["http://hl7.org/fhir/uv/ebm/StructureDefinition/variable-definition"]}, "title": "Nausea as other adverse event", "status": "active", "timing": {"text": "From Baseline to End of Follow-up (Up to 2 Months)"}, "classifier": [{"text": "Other Adverse Event"}, {"text": "Gastrointestinal disorders"}], "definition": {"concept": {"text": "Nausea as other adverse event"}}, "resourceType": "EvidenceVariable", "definitionModifier": [{"code": {"text": "Adverse event assessment type"}, "valueCodeableConcept": {"coding": [{"code": "systematic-assessment", "system": "http://hl7.org/fhir/definition-method", "display": "Systematic Assessment"}]}}, {"code": {"text": "Source Vocabulary for Adverse Event Definition"}, "valueCodeableConcept": {"text": "MedDRA 18.1"}}], "handling": "boolean"}, {"id": "NCT03421379-OtherAdverseEvent-6-EG000", "meta": {"profile": ["http://hl7.org/fhir/uv/ebm/StructureDefinition/non-comparative-evidence"]}, "name": "NCT03421379_OtherAdverseEvent_6_EG000", "title": "Toothache as other adverse event for Glucagon Nasal Powder in NCT03421379", "status": "active", "statistic": [{"quantity": {"value": 0.0141}, "sampleSize": {"knownDataCount": 71}, "statisticType": {"text": "Percentage"}, "numberAffected": 1, "numberOfEvents": 1}], "resourceType": "Evidence", "variableDefinition": [{"observed": {"display": "A single dose of 3 mg glucagon nasal powder was administered intranasally"}, "description": "Glucagon Nasal Powder", "variableRole": "population"}, {"note": [{"text": "All randomized participants who received at least one dose of study drug."}], "observed": {"type": "EvidenceVariable", "reference": "#NCT03421379-OtherAdverseEvent-6"}, "variableRole": "outcome"}]}, {"id": "NCT03421379-OtherAdverseEvent-6-EG001", "meta": {"profile": ["http://hl7.org/fhir/uv/ebm/StructureDefinition/non-comparative-evidence"]}, "name": "NCT03421379_OtherAdverseEvent_6_EG001", "title": "Toothache as other adverse event for Glucagon Hydrochloride Solution in NCT03421379", "status": "active", "statistic": [{"quantity": {"value": 0.0143}, "sampleSize": {"knownDataCount": 70}, "statisticType": {"text": "Percentage"}, "numberAffected": 1, "numberOfEvents": 1}], "resourceType": "Evidence", "variableDefinition": [{"observed": {"display": "A single dose of 1 mg glucagon hydrochloride solution was administered IM"}, "description": "Glucagon Hydrochloride Solution", "variableRole": "population"}, {"note": [{"text": "All randomized participants who received at least one dose of study drug."}], "observed": {"type": "EvidenceVariable", "reference": "#NCT03421379-OtherAdverseEvent-6"}, "variableRole": "outcome"}]}, {"id": "NCT03421379-OtherAdverseEvent-6", "meta": {"profile": ["http://hl7.org/fhir/uv/ebm/StructureDefinition/variable-definition"]}, "title": "Toothache as other adverse event", "status": "active", "timing": {"text": "From Baseline to End of Follow-up (Up to 2 Months)"}, "classifier": [{"text": "Other Adverse Event"}, {"text": "Gastrointestinal disorders"}], "definition": {"concept": {"text": "Toothache as other adverse event"}}, "resourceType": "EvidenceVariable", "definitionModifier": [{"code": {"text": "Adverse event assessment type"}, "valueCodeableConcept": {"coding": [{"code": "systematic-assessment", "system": "http://hl7.org/fhir/definition-method", "display": "Systematic Assessment"}]}}, {"code": {"text": "Source Vocabulary for Adverse Event Definition"}, "valueCodeableConcept": {"text": "MedDRA 18.1"}}], "handling": "boolean"}, {"id": "NCT03421379-OtherAdverseEvent-7-EG000", "meta": {"profile": ["http://hl7.org/fhir/uv/ebm/StructureDefinition/non-comparative-evidence"]}, "name": "NCT03421379_OtherAdverseEvent_7_EG000", "title": "Vomiting as other adverse event for Glucagon Nasal Powder in NCT03421379", "status": "active", "statistic": [{"quantity": {"value": 0.0282}, "sampleSize": {"knownDataCount": 71}, "statisticType": {"text": "Percentage"}, "numberAffected": 2, "numberOfEvents": 2}], "resourceType": "Evidence", "variableDefinition": [{"observed": {"display": "A single dose of 3 mg glucagon nasal powder was administered intranasally"}, "description": "Glucagon Nasal Powder", "variableRole": "population"}, {"note": [{"text": "All randomized participants who received at least one dose of study drug."}], "observed": {"type": "EvidenceVariable", "reference": "#NCT03421379-OtherAdverseEvent-7"}, "variableRole": "outcome"}]}, {"id": "NCT03421379-OtherAdverseEvent-7-EG001", "meta": {"profile": ["http://hl7.org/fhir/uv/ebm/StructureDefinition/non-comparative-evidence"]}, "name": "NCT03421379_OtherAdverseEvent_7_EG001", "title": "Vomiting as other adverse event for Glucagon Hydrochloride Solution in NCT03421379", "status": "active", "statistic": [{"quantity": {"value": 0.0571}, "sampleSize": {"knownDataCount": 70}, "statisticType": {"text": "Percentage"}, "numberAffected": 4, "numberOfEvents": 5}], "resourceType": "Evidence", "variableDefinition": [{"observed": {"display": "A single dose of 1 mg glucagon hydrochloride solution was administered IM"}, "description": "Glucagon Hydrochloride Solution", "variableRole": "population"}, {"note": [{"text": "All randomized participants who received at least one dose of study drug."}], "observed": {"type": "EvidenceVariable", "reference": "#NCT03421379-OtherAdverseEvent-7"}, "variableRole": "outcome"}]}, {"id": "NCT03421379-OtherAdverseEvent-7", "meta": {"profile": ["http://hl7.org/fhir/uv/ebm/StructureDefinition/variable-definition"]}, "title": "Vomiting as other adverse event", "status": "active", "timing": {"text": "From Baseline to End of Follow-up (Up to 2 Months)"}, "classifier": [{"text": "Other Adverse Event"}, {"text": "Gastrointestinal disorders"}], "definition": {"concept": {"text": "Vomiting as other adverse event"}}, "resourceType": "EvidenceVariable", "definitionModifier": [{"code": {"text": "Adverse event assessment type"}, "valueCodeableConcept": {"coding": [{"code": "systematic-assessment", "system": "http://hl7.org/fhir/definition-method", "display": "Systematic Assessment"}]}}, {"code": {"text": "Source Vocabulary for Adverse Event Definition"}, "valueCodeableConcept": {"text": "MedDRA 18.1"}}], "handling": "boolean"}, {"id": "NCT03421379-OtherAdverseEvent-8-EG000", "meta": {"profile": ["http://hl7.org/fhir/uv/ebm/StructureDefinition/non-comparative-evidence"]}, "name": "NCT03421379_OtherAdverseEvent_8_EG000", "title": "Feeling abnormal as other adverse event for Glucagon Nasal Powder in NCT03421379", "status": "active", "statistic": [{"quantity": {"value": 0}, "sampleSize": {"knownDataCount": 71}, "statisticType": {"text": "Percentage"}, "numberAffected": 0, "numberOfEvents": 0}], "resourceType": "Evidence", "variableDefinition": [{"observed": {"display": "A single dose of 3 mg glucagon nasal powder was administered intranasally"}, "description": "Glucagon Nasal Powder", "variableRole": "population"}, {"note": [{"text": "All randomized participants who received at least one dose of study drug."}], "observed": {"type": "EvidenceVariable", "reference": "#NCT03421379-OtherAdverseEvent-8"}, "variableRole": "outcome"}]}, {"id": "NCT03421379-OtherAdverseEvent-8-EG001", "meta": {"profile": ["http://hl7.org/fhir/uv/ebm/StructureDefinition/non-comparative-evidence"]}, "name": "NCT03421379_OtherAdverseEvent_8_EG001", "title": "Feeling abnormal as other adverse event for Glucagon Hydrochloride Solution in NCT03421379", "status": "active", "statistic": [{"quantity": {"value": 0.0143}, "sampleSize": {"knownDataCount": 70}, "statisticType": {"text": "Percentage"}, "numberAffected": 1, "numberOfEvents": 1}], "resourceType": "Evidence", "variableDefinition": [{"observed": {"display": "A single dose of 1 mg glucagon hydrochloride solution was administered IM"}, "description": "Glucagon Hydrochloride Solution", "variableRole": "population"}, {"note": [{"text": "All randomized participants who received at least one dose of study drug."}], "observed": {"type": "EvidenceVariable", "reference": "#NCT03421379-OtherAdverseEvent-8"}, "variableRole": "outcome"}]}, {"id": "NCT03421379-OtherAdverseEvent-8", "meta": {"profile": ["http://hl7.org/fhir/uv/ebm/StructureDefinition/variable-definition"]}, "title": "Feeling abnormal as other adverse event", "status": "active", "timing": {"text": "From Baseline to End of Follow-up (Up to 2 Months)"}, "classifier": [{"text": "Other Adverse Event"}, {"text": "General disorders"}], "definition": {"concept": {"text": "Feeling abnormal as other adverse event"}}, "resourceType": "EvidenceVariable", "definitionModifier": [{"code": {"text": "Adverse event assessment type"}, "valueCodeableConcept": {"coding": [{"code": "systematic-assessment", "system": "http://hl7.org/fhir/definition-method", "display": "Systematic Assessment"}]}}, {"code": {"text": "Source Vocabulary for Adverse Event Definition"}, "valueCodeableConcept": {"text": "MedDRA 18.1"}}], "handling": "boolean"}, {"id": "NCT03421379-OtherAdverseEvent-9-EG000", "meta": {"profile": ["http://hl7.org/fhir/uv/ebm/StructureDefinition/non-comparative-evidence"]}, "name": "NCT03421379_OtherAdverseEvent_9_EG000", "title": "Cystitis as other adverse event for Glucagon Nasal Powder in NCT03421379", "status": "active", "statistic": [{"quantity": {"value": 0}, "sampleSize": {"knownDataCount": 71}, "statisticType": {"text": "Percentage"}, "numberAffected": 0, "numberOfEvents": 0}], "resourceType": "Evidence", "variableDefinition": [{"observed": {"display": "A single dose of 3 mg glucagon nasal powder was administered intranasally"}, "description": "Glucagon Nasal Powder", "variableRole": "population"}, {"note": [{"text": "All randomized participants who received at least one dose of study drug."}], "observed": {"type": "EvidenceVariable", "reference": "#NCT03421379-OtherAdverseEvent-9"}, "variableRole": "outcome"}]}, {"id": "NCT03421379-OtherAdverseEvent-9-EG001", "meta": {"profile": ["http://hl7.org/fhir/uv/ebm/StructureDefinition/non-comparative-evidence"]}, "name": "NCT03421379_OtherAdverseEvent_9_EG001", "title": "Cystitis as other adverse event for Glucagon Hydrochloride Solution in NCT03421379", "status": "active", "statistic": [{"quantity": {"value": 0.0143}, "sampleSize": {"knownDataCount": 70}, "statisticType": {"text": "Percentage"}, "numberAffected": 1, "numberOfEvents": 1}], "resourceType": "Evidence", "variableDefinition": [{"observed": {"display": "A single dose of 1 mg glucagon hydrochloride solution was administered IM"}, "description": "Glucagon Hydrochloride Solution", "variableRole": "population"}, {"note": [{"text": "All randomized participants who received at least one dose of study drug."}], "observed": {"type": "EvidenceVariable", "reference": "#NCT03421379-OtherAdverseEvent-9"}, "variableRole": "outcome"}]}, {"id": "NCT03421379-OtherAdverseEvent-9", "meta": {"profile": ["http://hl7.org/fhir/uv/ebm/StructureDefinition/variable-definition"]}, "title": "Cystitis as other adverse event", "status": "active", "timing": {"text": "From Baseline to End of Follow-up (Up to 2 Months)"}, "classifier": [{"text": "Other Adverse Event"}, {"text": "Infections and infestations"}], "definition": {"concept": {"text": "Cystitis as other adverse event"}}, "resourceType": "EvidenceVariable", "definitionModifier": [{"code": {"text": "Adverse event assessment type"}, "valueCodeableConcept": {"coding": [{"code": "systematic-assessment", "system": "http://hl7.org/fhir/definition-method", "display": "Systematic Assessment"}]}}, {"code": {"text": "Source Vocabulary for Adverse Event Definition"}, "valueCodeableConcept": {"text": "MedDRA 18.1"}}], "handling": "boolean"}, {"id": "NCT03421379-OtherAdverseEvent-10-EG000", "meta": {"profile": ["http://hl7.org/fhir/uv/ebm/StructureDefinition/non-comparative-evidence"]}, "name": "NCT03421379_OtherAdverseEvent_10_EG000", "title": "Blood pressure decreased as other adverse event for Glucagon Nasal Powder in NCT03421379", "status": "active", "statistic": [{"quantity": {"value": 0.0141}, "sampleSize": {"knownDataCount": 71}, "statisticType": {"text": "Percentage"}, "numberAffected": 1, "numberOfEvents": 1}], "resourceType": "Evidence", "variableDefinition": [{"observed": {"display": "A single dose of 3 mg glucagon nasal powder was administered intranasally"}, "description": "Glucagon Nasal Powder", "variableRole": "population"}, {"note": [{"text": "All randomized participants who received at least one dose of study drug."}], "observed": {"type": "EvidenceVariable", "reference": "#NCT03421379-OtherAdverseEvent-10"}, "variableRole": "outcome"}]}, {"id": "NCT03421379-OtherAdverseEvent-10-EG001", "meta": {"profile": ["http://hl7.org/fhir/uv/ebm/StructureDefinition/non-comparative-evidence"]}, "name": "NCT03421379_OtherAdverseEvent_10_EG001", "title": "Blood pressure decreased as other adverse event for Glucagon Hydrochloride Solution in NCT03421379", "status": "active", "statistic": [{"quantity": {"value": 0.0286}, "sampleSize": {"knownDataCount": 70}, "statisticType": {"text": "Percentage"}, "numberAffected": 2, "numberOfEvents": 2}], "resourceType": "Evidence", "variableDefinition": [{"observed": {"display": "A single dose of 1 mg glucagon hydrochloride solution was administered IM"}, "description": "Glucagon Hydrochloride Solution", "variableRole": "population"}, {"note": [{"text": "All randomized participants who received at least one dose of study drug."}], "observed": {"type": "EvidenceVariable", "reference": "#NCT03421379-OtherAdverseEvent-10"}, "variableRole": "outcome"}]}, {"id": "NCT03421379-OtherAdverseEvent-10", "meta": {"profile": ["http://hl7.org/fhir/uv/ebm/StructureDefinition/variable-definition"]}, "title": "Blood pressure decreased as other adverse event", "status": "active", "timing": {"text": "From Baseline to End of Follow-up (Up to 2 Months)"}, "classifier": [{"text": "Other Adverse Event"}, {"text": "Investigations"}], "definition": {"concept": {"text": "Blood pressure decreased as other adverse event"}}, "resourceType": "EvidenceVariable", "definitionModifier": [{"code": {"text": "Adverse event assessment type"}, "valueCodeableConcept": {"coding": [{"code": "systematic-assessment", "system": "http://hl7.org/fhir/definition-method", "display": "Systematic Assessment"}]}}, {"code": {"text": "Source Vocabulary for Adverse Event Definition"}, "valueCodeableConcept": {"text": "MedDRA 18.1"}}], "handling": "boolean"}, {"id": "NCT03421379-OtherAdverseEvent-11-EG000", "meta": {"profile": ["http://hl7.org/fhir/uv/ebm/StructureDefinition/non-comparative-evidence"]}, "name": "NCT03421379_OtherAdverseEvent_11_EG000", "title": "Blood pressure increased as other adverse event for Glucagon Nasal Powder in NCT03421379", "status": "active", "statistic": [{"quantity": {"value": 0.0563}, "sampleSize": {"knownDataCount": 71}, "statisticType": {"text": "Percentage"}, "numberAffected": 4, "numberOfEvents": 4}], "resourceType": "Evidence", "variableDefinition": [{"observed": {"display": "A single dose of 3 mg glucagon nasal powder was administered intranasally"}, "description": "Glucagon Nasal Powder", "variableRole": "population"}, {"note": [{"text": "All randomized participants who received at least one dose of study drug."}], "observed": {"type": "EvidenceVariable", "reference": "#NCT03421379-OtherAdverseEvent-11"}, "variableRole": "outcome"}]}, {"id": "NCT03421379-OtherAdverseEvent-11-EG001", "meta": {"profile": ["http://hl7.org/fhir/uv/ebm/StructureDefinition/non-comparative-evidence"]}, "name": "NCT03421379_OtherAdverseEvent_11_EG001", "title": "Blood pressure increased as other adverse event for Glucagon Hydrochloride Solution in NCT03421379", "status": "active", "statistic": [{"quantity": {"value": 0}, "sampleSize": {"knownDataCount": 70}, "statisticType": {"text": "Percentage"}, "numberAffected": 0, "numberOfEvents": 0}], "resourceType": "Evidence", "variableDefinition": [{"observed": {"display": "A single dose of 1 mg glucagon hydrochloride solution was administered IM"}, "description": "Glucagon Hydrochloride Solution", "variableRole": "population"}, {"note": [{"text": "All randomized participants who received at least one dose of study drug."}], "observed": {"type": "EvidenceVariable", "reference": "#NCT03421379-OtherAdverseEvent-11"}, "variableRole": "outcome"}]}, {"id": "NCT03421379-OtherAdverseEvent-11", "meta": {"profile": ["http://hl7.org/fhir/uv/ebm/StructureDefinition/variable-definition"]}, "title": "Blood pressure increased as other adverse event", "status": "active", "timing": {"text": "From Baseline to End of Follow-up (Up to 2 Months)"}, "classifier": [{"text": "Other Adverse Event"}, {"text": "Investigations"}], "definition": {"concept": {"text": "Blood pressure increased as other adverse event"}}, "resourceType": "EvidenceVariable", "definitionModifier": [{"code": {"text": "Adverse event assessment type"}, "valueCodeableConcept": {"coding": [{"code": "systematic-assessment", "system": "http://hl7.org/fhir/definition-method", "display": "Systematic Assessment"}]}}, {"code": {"text": "Source Vocabulary for Adverse Event Definition"}, "valueCodeableConcept": {"text": "MedDRA 18.1"}}], "handling": "boolean"}, {"id": "NCT03421379-OtherAdverseEvent-12-EG000", "meta": {"profile": ["http://hl7.org/fhir/uv/ebm/StructureDefinition/non-comparative-evidence"]}, "name": "NCT03421379_OtherAdverseEvent_12_EG000", "title": "Back pain as other adverse event for Glucagon Nasal Powder in NCT03421379", "status": "active", "statistic": [{"quantity": {"value": 0.0141}, "sampleSize": {"knownDataCount": 71}, "statisticType": {"text": "Percentage"}, "numberAffected": 1, "numberOfEvents": 1}], "resourceType": "Evidence", "variableDefinition": [{"observed": {"display": "A single dose of 3 mg glucagon nasal powder was administered intranasally"}, "description": "Glucagon Nasal Powder", "variableRole": "population"}, {"note": [{"text": "All randomized participants who received at least one dose of study drug."}], "observed": {"type": "EvidenceVariable", "reference": "#NCT03421379-OtherAdverseEvent-12"}, "variableRole": "outcome"}]}, {"id": "NCT03421379-OtherAdverseEvent-12-EG001", "meta": {"profile": ["http://hl7.org/fhir/uv/ebm/StructureDefinition/non-comparative-evidence"]}, "name": "NCT03421379_OtherAdverseEvent_12_EG001", "title": "Back pain as other adverse event for Glucagon Hydrochloride Solution in NCT03421379", "status": "active", "statistic": [{"quantity": {"value": 0}, "sampleSize": {"knownDataCount": 70}, "statisticType": {"text": "Percentage"}, "numberAffected": 0, "numberOfEvents": 0}], "resourceType": "Evidence", "variableDefinition": [{"observed": {"display": "A single dose of 1 mg glucagon hydrochloride solution was administered IM"}, "description": "Glucagon Hydrochloride Solution", "variableRole": "population"}, {"note": [{"text": "All randomized participants who received at least one dose of study drug."}], "observed": {"type": "EvidenceVariable", "reference": "#NCT03421379-OtherAdverseEvent-12"}, "variableRole": "outcome"}]}, {"id": "NCT03421379-OtherAdverseEvent-12", "meta": {"profile": ["http://hl7.org/fhir/uv/ebm/StructureDefinition/variable-definition"]}, "title": "Back pain as other adverse event", "status": "active", "timing": {"text": "From Baseline to End of Follow-up (Up to 2 Months)"}, "classifier": [{"text": "Other Adverse Event"}, {"text": "Musculoskeletal and connective tissue disorders"}], "definition": {"concept": {"text": "Back pain as other adverse event"}}, "resourceType": "EvidenceVariable", "definitionModifier": [{"code": {"text": "Adverse event assessment type"}, "valueCodeableConcept": {"coding": [{"code": "systematic-assessment", "system": "http://hl7.org/fhir/definition-method", "display": "Systematic Assessment"}]}}, {"code": {"text": "Source Vocabulary for Adverse Event Definition"}, "valueCodeableConcept": {"text": "MedDRA 18.1"}}], "handling": "boolean"}, {"id": "NCT03421379-OtherAdverseEvent-13-EG000", "meta": {"profile": ["http://hl7.org/fhir/uv/ebm/StructureDefinition/non-comparative-evidence"]}, "name": "NCT03421379_OtherAdverseEvent_13_EG000", "title": "Headache as other adverse event for Glucagon Nasal Powder in NCT03421379", "status": "active", "statistic": [{"quantity": {"value": 0.0141}, "sampleSize": {"knownDataCount": 71}, "statisticType": {"text": "Percentage"}, "numberAffected": 1, "numberOfEvents": 1}], "resourceType": "Evidence", "variableDefinition": [{"observed": {"display": "A single dose of 3 mg glucagon nasal powder was administered intranasally"}, "description": "Glucagon Nasal Powder", "variableRole": "population"}, {"note": [{"text": "All randomized participants who received at least one dose of study drug."}], "observed": {"type": "EvidenceVariable", "reference": "#NCT03421379-OtherAdverseEvent-13"}, "variableRole": "outcome"}]}, {"id": "NCT03421379-OtherAdverseEvent-13-EG001", "meta": {"profile": ["http://hl7.org/fhir/uv/ebm/StructureDefinition/non-comparative-evidence"]}, "name": "NCT03421379_OtherAdverseEvent_13_EG001", "title": "Headache as other adverse event for Glucagon Hydrochloride Solution in NCT03421379", "status": "active", "statistic": [{"quantity": {"value": 0.0143}, "sampleSize": {"knownDataCount": 70}, "statisticType": {"text": "Percentage"}, "numberAffected": 1, "numberOfEvents": 1}], "resourceType": "Evidence", "variableDefinition": [{"observed": {"display": "A single dose of 1 mg glucagon hydrochloride solution was administered IM"}, "description": "Glucagon Hydrochloride Solution", "variableRole": "population"}, {"note": [{"text": "All randomized participants who received at least one dose of study drug."}], "observed": {"type": "EvidenceVariable", "reference": "#NCT03421379-OtherAdverseEvent-13"}, "variableRole": "outcome"}]}, {"id": "NCT03421379-OtherAdverseEvent-13", "meta": {"profile": ["http://hl7.org/fhir/uv/ebm/StructureDefinition/variable-definition"]}, "title": "Headache as other adverse event", "status": "active", "timing": {"text": "From Baseline to End of Follow-up (Up to 2 Months)"}, "classifier": [{"text": "Other Adverse Event"}, {"text": "Nervous system disorders"}], "definition": {"concept": {"text": "Headache as other adverse event"}}, "resourceType": "EvidenceVariable", "definitionModifier": [{"code": {"text": "Adverse event assessment type"}, "valueCodeableConcept": {"coding": [{"code": "systematic-assessment", "system": "http://hl7.org/fhir/definition-method", "display": "Systematic Assessment"}]}}, {"code": {"text": "Source Vocabulary for Adverse Event Definition"}, "valueCodeableConcept": {"text": "MedDRA 18.1"}}], "handling": "boolean"}, {"id": "NCT03421379-OtherAdverseEvent-14-EG000", "meta": {"profile": ["http://hl7.org/fhir/uv/ebm/StructureDefinition/non-comparative-evidence"]}, "name": "NCT03421379_OtherAdverseEvent_14_EG000", "title": "Nasal congestion as other adverse event for Glucagon Nasal Powder in NCT03421379", "status": "active", "statistic": [{"quantity": {"value": 0.0141}, "sampleSize": {"knownDataCount": 71}, "statisticType": {"text": "Percentage"}, "numberAffected": 1, "numberOfEvents": 1}], "resourceType": "Evidence", "variableDefinition": [{"observed": {"display": "A single dose of 3 mg glucagon nasal powder was administered intranasally"}, "description": "Glucagon Nasal Powder", "variableRole": "population"}, {"note": [{"text": "All randomized participants who received at least one dose of study drug."}], "observed": {"type": "EvidenceVariable", "reference": "#NCT03421379-OtherAdverseEvent-14"}, "variableRole": "outcome"}]}, {"id": "NCT03421379-OtherAdverseEvent-14-EG001", "meta": {"profile": ["http://hl7.org/fhir/uv/ebm/StructureDefinition/non-comparative-evidence"]}, "name": "NCT03421379_OtherAdverseEvent_14_EG001", "title": "Nasal congestion as other adverse event for Glucagon Hydrochloride Solution in NCT03421379", "status": "active", "statistic": [{"quantity": {"value": 0}, "sampleSize": {"knownDataCount": 70}, "statisticType": {"text": "Percentage"}, "numberAffected": 0, "numberOfEvents": 0}], "resourceType": "Evidence", "variableDefinition": [{"observed": {"display": "A single dose of 1 mg glucagon hydrochloride solution was administered IM"}, "description": "Glucagon Hydrochloride Solution", "variableRole": "population"}, {"note": [{"text": "All randomized participants who received at least one dose of study drug."}], "observed": {"type": "EvidenceVariable", "reference": "#NCT03421379-OtherAdverseEvent-14"}, "variableRole": "outcome"}]}, {"id": "NCT03421379-OtherAdverseEvent-14", "meta": {"profile": ["http://hl7.org/fhir/uv/ebm/StructureDefinition/variable-definition"]}, "title": "Nasal congestion as other adverse event", "status": "active", "timing": {"text": "From Baseline to End of Follow-up (Up to 2 Months)"}, "classifier": [{"text": "Other Adverse Event"}, {"text": "Respiratory, thoracic and mediastinal disorders"}], "definition": {"concept": {"text": "Nasal congestion as other adverse event"}}, "resourceType": "EvidenceVariable", "definitionModifier": [{"code": {"text": "Adverse event assessment type"}, "valueCodeableConcept": {"coding": [{"code": "systematic-assessment", "system": "http://hl7.org/fhir/definition-method", "display": "Systematic Assessment"}]}}, {"code": {"text": "Source Vocabulary for Adverse Event Definition"}, "valueCodeableConcept": {"text": "MedDRA 18.1"}}], "handling": "boolean"}, {"id": "NCT03421379-OtherAdverseEvent-15-EG000", "meta": {"profile": ["http://hl7.org/fhir/uv/ebm/StructureDefinition/non-comparative-evidence"]}, "name": "NCT03421379_OtherAdverseEvent_15_EG000", "title": "Nasal pruritus as other adverse event for Glucagon Nasal Powder in NCT03421379", "status": "active", "statistic": [{"quantity": {"value": 0.0141}, "sampleSize": {"knownDataCount": 71}, "statisticType": {"text": "Percentage"}, "numberAffected": 1, "numberOfEvents": 1}], "resourceType": "Evidence", "variableDefinition": [{"observed": {"display": "A single dose of 3 mg glucagon nasal powder was administered intranasally"}, "description": "Glucagon Nasal Powder", "variableRole": "population"}, {"note": [{"text": "All randomized participants who received at least one dose of study drug."}], "observed": {"type": "EvidenceVariable", "reference": "#NCT03421379-OtherAdverseEvent-15"}, "variableRole": "outcome"}]}, {"id": "NCT03421379-OtherAdverseEvent-15-EG001", "meta": {"profile": ["http://hl7.org/fhir/uv/ebm/StructureDefinition/non-comparative-evidence"]}, "name": "NCT03421379_OtherAdverseEvent_15_EG001", "title": "Nasal pruritus as other adverse event for Glucagon Hydrochloride Solution in NCT03421379", "status": "active", "statistic": [{"quantity": {"value": 0}, "sampleSize": {"knownDataCount": 70}, "statisticType": {"text": "Percentage"}, "numberAffected": 0, "numberOfEvents": 0}], "resourceType": "Evidence", "variableDefinition": [{"observed": {"display": "A single dose of 1 mg glucagon hydrochloride solution was administered IM"}, "description": "Glucagon Hydrochloride Solution", "variableRole": "population"}, {"note": [{"text": "All randomized participants who received at least one dose of study drug."}], "observed": {"type": "EvidenceVariable", "reference": "#NCT03421379-OtherAdverseEvent-15"}, "variableRole": "outcome"}]}, {"id": "NCT03421379-OtherAdverseEvent-15", "meta": {"profile": ["http://hl7.org/fhir/uv/ebm/StructureDefinition/variable-definition"]}, "title": "Nasal pruritus as other adverse event", "status": "active", "timing": {"text": "From Baseline to End of Follow-up (Up to 2 Months)"}, "classifier": [{"text": "Other Adverse Event"}, {"text": "Respiratory, thoracic and mediastinal disorders"}], "definition": {"concept": {"text": "Nasal pruritus as other adverse event"}}, "resourceType": "EvidenceVariable", "definitionModifier": [{"code": {"text": "Adverse event assessment type"}, "valueCodeableConcept": {"coding": [{"code": "systematic-assessment", "system": "http://hl7.org/fhir/definition-method", "display": "Systematic Assessment"}]}}, {"code": {"text": "Source Vocabulary for Adverse Event Definition"}, "valueCodeableConcept": {"text": "MedDRA 18.1"}}], "handling": "boolean"}, {"id": "NCT03421379-OtherAdverseEvent-16-EG000", "meta": {"profile": ["http://hl7.org/fhir/uv/ebm/StructureDefinition/non-comparative-evidence"]}, "name": "NCT03421379_OtherAdverseEvent_16_EG000", "title": "Oropharyngeal pain as other adverse event for Glucagon Nasal Powder in NCT03421379", "status": "active", "statistic": [{"quantity": {"value": 0.0141}, "sampleSize": {"knownDataCount": 71}, "statisticType": {"text": "Percentage"}, "numberAffected": 1, "numberOfEvents": 1}], "resourceType": "Evidence", "variableDefinition": [{"observed": {"display": "A single dose of 3 mg glucagon nasal powder was administered intranasally"}, "description": "Glucagon Nasal Powder", "variableRole": "population"}, {"note": [{"text": "All randomized participants who received at least one dose of study drug."}], "observed": {"type": "EvidenceVariable", "reference": "#NCT03421379-OtherAdverseEvent-16"}, "variableRole": "outcome"}]}, {"id": "NCT03421379-OtherAdverseEvent-16-EG001", "meta": {"profile": ["http://hl7.org/fhir/uv/ebm/StructureDefinition/non-comparative-evidence"]}, "name": "NCT03421379_OtherAdverseEvent_16_EG001", "title": "Oropharyngeal pain as other adverse event for Glucagon Hydrochloride Solution in NCT03421379", "status": "active", "statistic": [{"quantity": {"value": 0}, "sampleSize": {"knownDataCount": 70}, "statisticType": {"text": "Percentage"}, "numberAffected": 0, "numberOfEvents": 0}], "resourceType": "Evidence", "variableDefinition": [{"observed": {"display": "A single dose of 1 mg glucagon hydrochloride solution was administered IM"}, "description": "Glucagon Hydrochloride Solution", "variableRole": "population"}, {"note": [{"text": "All randomized participants who received at least one dose of study drug."}], "observed": {"type": "EvidenceVariable", "reference": "#NCT03421379-OtherAdverseEvent-16"}, "variableRole": "outcome"}]}, {"id": "NCT03421379-OtherAdverseEvent-16", "meta": {"profile": ["http://hl7.org/fhir/uv/ebm/StructureDefinition/variable-definition"]}, "title": "Oropharyngeal pain as other adverse event", "status": "active", "timing": {"text": "From Baseline to End of Follow-up (Up to 2 Months)"}, "classifier": [{"text": "Other Adverse Event"}, {"text": "Respiratory, thoracic and mediastinal disorders"}], "definition": {"concept": {"text": "Oropharyngeal pain as other adverse event"}}, "resourceType": "EvidenceVariable", "definitionModifier": [{"code": {"text": "Adverse event assessment type"}, "valueCodeableConcept": {"coding": [{"code": "systematic-assessment", "system": "http://hl7.org/fhir/definition-method", "display": "Systematic Assessment"}]}}, {"code": {"text": "Source Vocabulary for Adverse Event Definition"}, "valueCodeableConcept": {"text": "MedDRA 18.1"}}], "handling": "boolean"}, {"id": "NCT03421379-OtherAdverseEvent-17-EG000", "meta": {"profile": ["http://hl7.org/fhir/uv/ebm/StructureDefinition/non-comparative-evidence"]}, "name": "NCT03421379_OtherAdverseEvent_17_EG000", "title": "Rhinalgia as other adverse event for Glucagon Nasal Powder in NCT03421379", "status": "active", "statistic": [{"quantity": {"value": 0.0845}, "sampleSize": {"knownDataCount": 71}, "statisticType": {"text": "Percentage"}, "numberAffected": 6, "numberOfEvents": 6}], "resourceType": "Evidence", "variableDefinition": [{"observed": {"display": "A single dose of 3 mg glucagon nasal powder was administered intranasally"}, "description": "Glucagon Nasal Powder", "variableRole": "population"}, {"note": [{"text": "All randomized participants who received at least one dose of study drug."}], "observed": {"type": "EvidenceVariable", "reference": "#NCT03421379-OtherAdverseEvent-17"}, "variableRole": "outcome"}]}, {"id": "NCT03421379-OtherAdverseEvent-17-EG001", "meta": {"profile": ["http://hl7.org/fhir/uv/ebm/StructureDefinition/non-comparative-evidence"]}, "name": "NCT03421379_OtherAdverseEvent_17_EG001", "title": "Rhinalgia as other adverse event for Glucagon Hydrochloride Solution in NCT03421379", "status": "active", "statistic": [{"quantity": {"value": 0}, "sampleSize": {"knownDataCount": 70}, "statisticType": {"text": "Percentage"}, "numberAffected": 0, "numberOfEvents": 0}], "resourceType": "Evidence", "variableDefinition": [{"observed": {"display": "A single dose of 1 mg glucagon hydrochloride solution was administered IM"}, "description": "Glucagon Hydrochloride Solution", "variableRole": "population"}, {"note": [{"text": "All randomized participants who received at least one dose of study drug."}], "observed": {"type": "EvidenceVariable", "reference": "#NCT03421379-OtherAdverseEvent-17"}, "variableRole": "outcome"}]}, {"id": "NCT03421379-OtherAdverseEvent-17", "meta": {"profile": ["http://hl7.org/fhir/uv/ebm/StructureDefinition/variable-definition"]}, "title": "Rhinalgia as other adverse event", "status": "active", "timing": {"text": "From Baseline to End of Follow-up (Up to 2 Months)"}, "classifier": [{"text": "Other Adverse Event"}, {"text": "Respiratory, thoracic and mediastinal disorders"}], "definition": {"concept": {"text": "Rhinalgia as other adverse event"}}, "resourceType": "EvidenceVariable", "definitionModifier": [{"code": {"text": "Adverse event assessment type"}, "valueCodeableConcept": {"coding": [{"code": "systematic-assessment", "system": "http://hl7.org/fhir/definition-method", "display": "Systematic Assessment"}]}}, {"code": {"text": "Source Vocabulary for Adverse Event Definition"}, "valueCodeableConcept": {"text": "MedDRA 18.1"}}], "handling": "boolean"}, {"id": "NCT03421379-OtherAdverseEvent-18-EG000", "meta": {"profile": ["http://hl7.org/fhir/uv/ebm/StructureDefinition/non-comparative-evidence"]}, "name": "NCT03421379_OtherAdverseEvent_18_EG000", "title": "Cold sweat as other adverse event for Glucagon Nasal Powder in NCT03421379", "status": "active", "statistic": [{"quantity": {"value": 0}, "sampleSize": {"knownDataCount": 71}, "statisticType": {"text": "Percentage"}, "numberAffected": 0, "numberOfEvents": 0}], "resourceType": "Evidence", "variableDefinition": [{"observed": {"display": "A single dose of 3 mg glucagon nasal powder was administered intranasally"}, "description": "Glucagon Nasal Powder", "variableRole": "population"}, {"note": [{"text": "All randomized participants who received at least one dose of study drug."}], "observed": {"type": "EvidenceVariable", "reference": "#NCT03421379-OtherAdverseEvent-18"}, "variableRole": "outcome"}]}, {"id": "NCT03421379-OtherAdverseEvent-18-EG001", "meta": {"profile": ["http://hl7.org/fhir/uv/ebm/StructureDefinition/non-comparative-evidence"]}, "name": "NCT03421379_OtherAdverseEvent_18_EG001", "title": "Cold sweat as other adverse event for Glucagon Hydrochloride Solution in NCT03421379", "status": "active", "statistic": [{"quantity": {"value": 0.0143}, "sampleSize": {"knownDataCount": 70}, "statisticType": {"text": "Percentage"}, "numberAffected": 1, "numberOfEvents": 1}], "resourceType": "Evidence", "variableDefinition": [{"observed": {"display": "A single dose of 1 mg glucagon hydrochloride solution was administered IM"}, "description": "Glucagon Hydrochloride Solution", "variableRole": "population"}, {"note": [{"text": "All randomized participants who received at least one dose of study drug."}], "observed": {"type": "EvidenceVariable", "reference": "#NCT03421379-OtherAdverseEvent-18"}, "variableRole": "outcome"}]}, {"id": "NCT03421379-OtherAdverseEvent-18", "meta": {"profile": ["http://hl7.org/fhir/uv/ebm/StructureDefinition/variable-definition"]}, "title": "Cold sweat as other adverse event", "status": "active", "timing": {"text": "From Baseline to End of Follow-up (Up to 2 Months)"}, "classifier": [{"text": "Other Adverse Event"}, {"text": "Skin and subcutaneous tissue disorders"}], "definition": {"concept": {"text": "Cold sweat as other adverse event"}}, "resourceType": "EvidenceVariable", "definitionModifier": [{"code": {"text": "Adverse event assessment type"}, "valueCodeableConcept": {"coding": [{"code": "systematic-assessment", "system": "http://hl7.org/fhir/definition-method", "display": "Systematic Assessment"}]}}, {"code": {"text": "Source Vocabulary for Adverse Event Definition"}, "valueCodeableConcept": {"text": "MedDRA 18.1"}}], "handling": "boolean"}, {"id": "NCT03421379-OtherAdverseEvent-19-EG000", "meta": {"profile": ["http://hl7.org/fhir/uv/ebm/StructureDefinition/non-comparative-evidence"]}, "name": "NCT03421379_OtherAdverseEvent_19_EG000", "title": "Hot flush as other adverse event for Glucagon Nasal Powder in NCT03421379", "status": "active", "statistic": [{"quantity": {"value": 0}, "sampleSize": {"knownDataCount": 71}, "statisticType": {"text": "Percentage"}, "numberAffected": 0, "numberOfEvents": 0}], "resourceType": "Evidence", "variableDefinition": [{"observed": {"display": "A single dose of 3 mg glucagon nasal powder was administered intranasally"}, "description": "Glucagon Nasal Powder", "variableRole": "population"}, {"note": [{"text": "All randomized participants who received at least one dose of study drug."}], "observed": {"type": "EvidenceVariable", "reference": "#NCT03421379-OtherAdverseEvent-19"}, "variableRole": "outcome"}]}, {"id": "NCT03421379-OtherAdverseEvent-19-EG001", "meta": {"profile": ["http://hl7.org/fhir/uv/ebm/StructureDefinition/non-comparative-evidence"]}, "name": "NCT03421379_OtherAdverseEvent_19_EG001", "title": "Hot flush as other adverse event for Glucagon Hydrochloride Solution in NCT03421379", "status": "active", "statistic": [{"quantity": {"value": 0.0143}, "sampleSize": {"knownDataCount": 70}, "statisticType": {"text": "Percentage"}, "numberAffected": 1, "numberOfEvents": 1}], "resourceType": "Evidence", "variableDefinition": [{"observed": {"display": "A single dose of 1 mg glucagon hydrochloride solution was administered IM"}, "description": "Glucagon Hydrochloride Solution", "variableRole": "population"}, {"note": [{"text": "All randomized participants who received at least one dose of study drug."}], "observed": {"type": "EvidenceVariable", "reference": "#NCT03421379-OtherAdverseEvent-19"}, "variableRole": "outcome"}]}, {"id": "NCT03421379-OtherAdverseEvent-19", "meta": {"profile": ["http://hl7.org/fhir/uv/ebm/StructureDefinition/variable-definition"]}, "title": "Hot flush as other adverse event", "status": "active", "timing": {"text": "From Baseline to End of Follow-up (Up to 2 Months)"}, "classifier": [{"text": "Other Adverse Event"}, {"text": "Vascular disorders"}], "definition": {"concept": {"text": "Hot flush as other adverse event"}}, "resourceType": "EvidenceVariable", "definitionModifier": [{"code": {"text": "Adverse event assessment type"}, "valueCodeableConcept": {"coding": [{"code": "systematic-assessment", "system": "http://hl7.org/fhir/definition-method", "display": "Systematic Assessment"}]}}, {"code": {"text": "Source Vocabulary for Adverse Event Definition"}, "valueCodeableConcept": {"text": "MedDRA 18.1"}}], "handling": "boolean"}, {"id": "NCT03421379-OtherAdverseEvent-20-EG000", "meta": {"profile": ["http://hl7.org/fhir/uv/ebm/StructureDefinition/non-comparative-evidence"]}, "name": "NCT03421379_OtherAdverseEvent_20_EG000", "title": "Hypertension as other adverse event for Glucagon Nasal Powder in NCT03421379", "status": "active", "statistic": [{"quantity": {"value": 0}, "sampleSize": {"knownDataCount": 71}, "statisticType": {"text": "Percentage"}, "numberAffected": 0, "numberOfEvents": 0}], "resourceType": "Evidence", "variableDefinition": [{"observed": {"display": "A single dose of 3 mg glucagon nasal powder was administered intranasally"}, "description": "Glucagon Nasal Powder", "variableRole": "population"}, {"note": [{"text": "All randomized participants who received at least one dose of study drug."}], "observed": {"type": "EvidenceVariable", "reference": "#NCT03421379-OtherAdverseEvent-20"}, "variableRole": "outcome"}]}, {"id": "NCT03421379-OtherAdverseEvent-20-EG001", "meta": {"profile": ["http://hl7.org/fhir/uv/ebm/StructureDefinition/non-comparative-evidence"]}, "name": "NCT03421379_OtherAdverseEvent_20_EG001", "title": "Hypertension as other adverse event for Glucagon Hydrochloride Solution in NCT03421379", "status": "active", "statistic": [{"quantity": {"value": 0.0143}, "sampleSize": {"knownDataCount": 70}, "statisticType": {"text": "Percentage"}, "numberAffected": 1, "numberOfEvents": 1}], "resourceType": "Evidence", "variableDefinition": [{"observed": {"display": "A single dose of 1 mg glucagon hydrochloride solution was administered IM"}, "description": "Glucagon Hydrochloride Solution", "variableRole": "population"}, {"note": [{"text": "All randomized participants who received at least one dose of study drug."}], "observed": {"type": "EvidenceVariable", "reference": "#NCT03421379-OtherAdverseEvent-20"}, "variableRole": "outcome"}]}, {"id": "NCT03421379-OtherAdverseEvent-20", "meta": {"profile": ["http://hl7.org/fhir/uv/ebm/StructureDefinition/variable-definition"]}, "title": "Hypertension as other adverse event", "status": "active", "timing": {"text": "From Baseline to End of Follow-up (Up to 2 Months)"}, "classifier": [{"text": "Other Adverse Event"}, {"text": "Vascular disorders"}], "definition": {"concept": {"text": "Hypertension as other adverse event"}}, "resourceType": "EvidenceVariable", "definitionModifier": [{"code": {"text": "Adverse event assessment type"}, "valueCodeableConcept": {"coding": [{"code": "systematic-assessment", "system": "http://hl7.org/fhir/definition-method", "display": "Systematic Assessment"}]}}, {"code": {"text": "Source Vocabulary for Adverse Event Definition"}, "valueCodeableConcept": {"text": "MedDRA 18.1"}}], "handling": "boolean"}, {"id": "NCT03421379-OtherAdverseEvent-21-EG000", "meta": {"profile": ["http://hl7.org/fhir/uv/ebm/StructureDefinition/non-comparative-evidence"]}, "name": "NCT03421379_OtherAdverseEvent_21_EG000", "title": "Peripheral coldness as other adverse event for Glucagon Nasal Powder in NCT03421379", "status": "active", "statistic": [{"quantity": {"value": 0}, "sampleSize": {"knownDataCount": 71}, "statisticType": {"text": "Percentage"}, "numberAffected": 0, "numberOfEvents": 0}], "resourceType": "Evidence", "variableDefinition": [{"observed": {"display": "A single dose of 3 mg glucagon nasal powder was administered intranasally"}, "description": "Glucagon Nasal Powder", "variableRole": "population"}, {"note": [{"text": "All randomized participants who received at least one dose of study drug."}], "observed": {"type": "EvidenceVariable", "reference": "#NCT03421379-OtherAdverseEvent-21"}, "variableRole": "outcome"}]}, {"id": "NCT03421379-OtherAdverseEvent-21-EG001", "meta": {"profile": ["http://hl7.org/fhir/uv/ebm/StructureDefinition/non-comparative-evidence"]}, "name": "NCT03421379_OtherAdverseEvent_21_EG001", "title": "Peripheral coldness as other adverse event for Glucagon Hydrochloride Solution in NCT03421379", "status": "active", "statistic": [{"quantity": {"value": 0.0143}, "sampleSize": {"knownDataCount": 70}, "statisticType": {"text": "Percentage"}, "numberAffected": 1, "numberOfEvents": 1}], "resourceType": "Evidence", "variableDefinition": [{"observed": {"display": "A single dose of 1 mg glucagon hydrochloride solution was administered IM"}, "description": "Glucagon Hydrochloride Solution", "variableRole": "population"}, {"note": [{"text": "All randomized participants who received at least one dose of study drug."}], "observed": {"type": "EvidenceVariable", "reference": "#NCT03421379-OtherAdverseEvent-21"}, "variableRole": "outcome"}]}, {"id": "NCT03421379-OtherAdverseEvent-21", "meta": {"profile": ["http://hl7.org/fhir/uv/ebm/StructureDefinition/variable-definition"]}, "title": "Peripheral coldness as other adverse event", "status": "active", "timing": {"text": "From Baseline to End of Follow-up (Up to 2 Months)"}, "classifier": [{"text": "Other Adverse Event"}, {"text": "Vascular disorders"}], "definition": {"concept": {"text": "Peripheral coldness as other adverse event"}}, "resourceType": "EvidenceVariable", "definitionModifier": [{"code": {"text": "Adverse event assessment type"}, "valueCodeableConcept": {"coding": [{"code": "systematic-assessment", "system": "http://hl7.org/fhir/definition-method", "display": "Systematic Assessment"}]}}, {"code": {"text": "Source Vocabulary for Adverse Event Definition"}, "valueCodeableConcept": {"text": "MedDRA 18.1"}}], "handling": "boolean"}], "custodian": {"type": "Organization", "display": "Computable Publishing LLC", "reference": "Organization/118079"}, "relatesTo": [{"type": "cite-as", "targetMarkdown": "Adverse Events Report for NCT03421379 [Database Entry: FHIR Composition Resource]. Contributors: [No author listed.] [Authors/Creators]. In: Fast Evidence Interoperability Resources (FEvIR) Platform, FOI 399874. Revised 2025-12-11. Available at: https://fevir.net/resources/Composition/399874. Computable resource at: https://fevir.net/resources/Composition/399874#json."}], "identifier": [{"type": {"text": "FEvIR Object Identifier", "coding": [{"code": "ACSN", "system": "http://terminology.hl7.org/CodeSystem/v2-0203", "display": "Accession ID"}]}, "value": "399874", "system": "https://fevir.net/FOI", "assigner": {"display": "Computable Publishing LLC"}}, {"type": {"text": "FEvIR Linking Identifier"}, "value": "NCT03421379-adverse-events-report", "system": "https://fevir.net/FLI", "assigner": {"display": "Computable Publishing LLC"}}], "resourceType": "Composition", "section": [{"code": {"text": "EventsFrequencyThreshold"}, "text": {"div": "<div xmlns=\"http://www.w3.org/1999/xhtml\">0%</div>", "status": "generated"}, "title": "Events Frequency Threshold"}, {"code": {"text": "EventsTimeFrame"}, "text": {"div": "<div xmlns=\"http://www.w3.org/1999/xhtml\">From Baseline to End of Follow-up (Up to 2 Months)</div>", "status": "generated"}, "title": "Events Time Frame"}, {"code": {"text": "EventsDescription"}, "text": {"div": "<div xmlns=\"http://www.w3.org/1999/xhtml\">All randomized participants who received at least one dose of study drug.</div>", "status": "generated"}, "title": "Events Description"}, {"code": {"text": "EG000 Glucagon Nasal Powder"}, "title": "Glucagon Nasal Powder", "section": [{"code": {"text": "EventGroupDescription"}, "text": {"div": "<div xmlns=\"http://www.w3.org/1999/xhtml\">A single dose of 3 mg glucagon nasal powder was administered intranasally</div>", "status": "generated"}, "title": "Event Group Description"}]}, {"code": {"text": "EG001 Glucagon Hydrochloride Solution"}, "title": "Glucagon Hydrochloride Solution", "section": [{"code": {"text": "EventGroupDescription"}, "text": {"div": "<div xmlns=\"http://www.w3.org/1999/xhtml\">A single dose of 1 mg glucagon hydrochloride solution was administered IM</div>", "status": "generated"}, "title": "Event Group Description"}]}, {"code": {"text": "Total Mortality", "coding": [{"code": "results", "system": "https://fevir.net/resources/CodeSystem/179423", "display": "Results"}]}, "entry": [{"type": "Evidence", "display": "All-cause mortality for Glucagon Nasal Powder in NCT03421379", "reference": "#NCT03421379-AllCauseMortality-EG000"}, {"type": "Evidence", "display": "All-cause mortality for Glucagon Hydrochloride Solution in NCT03421379", "reference": "#NCT03421379-AllCauseMortality-EG001"}], "focus": {"type": "EvidenceVariable", "display": "All-cause mortality (timeframe for NCT03421379)", "reference": "#NCT03421379-AllCauseMortality"}, "title": "Total Mortality"}, {"code": {"text": "Total Serious Events", "coding": [{"code": "results", "system": "https://fevir.net/resources/CodeSystem/179423", "display": "Results"}]}, "entry": [{"type": "Evidence", "display": "Serious Adverse Events for Glucagon Nasal Powder in NCT03421379", "reference": "#NCT03421379-SeriousAdverseEvents-EG000"}, {"type": "Evidence", "display": "Serious Adverse Events for Glucagon Hydrochloride Solution in NCT03421379", "reference": "#NCT03421379-SeriousAdverseEvents-EG001"}], "focus": {"type": "EvidenceVariable", "display": "Serious Adverse Events (timeframe for NCT03421379)", "reference": "#NCT03421379-SeriousAdverseEvents"}, "title": "Total Serious Events"}, {"code": {"text": "Total Other Events", "coding": [{"code": "results", "system": "https://fevir.net/resources/CodeSystem/179423", "display": "Results"}]}, "entry": [{"type": "Evidence", "display": "Other Adverse Events for Glucagon Nasal Powder in NCT03421379", "reference": "#NCT03421379-OtherAdverseEvents-EG000"}, {"type": "Evidence", "display": "Other Adverse Events for Glucagon Hydrochloride Solution in NCT03421379", "reference": "#NCT03421379-OtherAdverseEvents-EG001"}], "focus": {"type": "EvidenceVariable", "display": "Other Adverse Events (timeframe for NCT03421379)", "reference": "#NCT03421379-OtherAdverseEvents"}, "title": "Total Other Events"}, {"code": {"text": "SeriousEventList"}, "title": "Serious Event List", "section": [{"code": {"coding": [{"code": "results", "system": "https://fevir.net/resources/CodeSystem/179423", "display": "Results"}]}, "entry": [{"type": "Evidence", "display": "Vertigo positional as serious adverse event for Glucagon Nasal Powder in NCT03421379", "reference": "#NCT03421379-SeriousAdverseEvent-0-EG000"}, {"type": "Evidence", "display": "Vertigo positional as serious adverse event for Glucagon Hydrochloride Solution in NCT03421379", "reference": "#NCT03421379-SeriousAdverseEvent-0-EG001"}], "focus": {"type": "EvidenceVariable", "display": "Vertigo positional as serious adverse event", "reference": "#NCT03421379-SeriousAdverseEvent-0"}, "title": "Vertigo positional"}]}, {"code": {"text": "OtherEventList"}, "title": "Other Event List", "section": [{"code": {"coding": [{"code": "results", "system": "https://fevir.net/resources/CodeSystem/179423", "display": "Results"}]}, "entry": [{"type": "Evidence", "display": "Ear pain as other adverse event for Glucagon Nasal Powder in NCT03421379", "reference": "#NCT03421379-OtherAdverseEvent-0-EG000"}, {"type": "Evidence", "display": "Ear pain as other adverse event for Glucagon Hydrochloride Solution in NCT03421379", "reference": "#NCT03421379-OtherAdverseEvent-0-EG001"}], "focus": {"type": "EvidenceVariable", "display": "Ear pain as other adverse event", "reference": "#NCT03421379-OtherAdverseEvent-0"}, "title": "Ear pain"}, {"code": {"coding": [{"code": "results", "system": "https://fevir.net/resources/CodeSystem/179423", "display": "Results"}]}, "entry": [{"type": "Evidence", "display": "Eye pain as other adverse event for Glucagon Nasal Powder in NCT03421379", "reference": "#NCT03421379-OtherAdverseEvent-1-EG000"}, {"type": "Evidence", "display": "Eye pain as other adverse event for Glucagon Hydrochloride Solution in NCT03421379", "reference": "#NCT03421379-OtherAdverseEvent-1-EG001"}], "focus": {"type": "EvidenceVariable", "display": "Eye pain as other adverse event", "reference": "#NCT03421379-OtherAdverseEvent-1"}, "title": "Eye pain"}, {"code": {"coding": [{"code": "results", "system": "https://fevir.net/resources/CodeSystem/179423", "display": "Results"}]}, "entry": [{"type": "Evidence", "display": "Eye pruritus as other adverse event for Glucagon Nasal Powder in NCT03421379", "reference": "#NCT03421379-OtherAdverseEvent-2-EG000"}, {"type": "Evidence", "display": "Eye pruritus as other adverse event for Glucagon Hydrochloride Solution in NCT03421379", "reference": "#NCT03421379-OtherAdverseEvent-2-EG001"}], "focus": {"type": "EvidenceVariable", "display": "Eye pruritus as other adverse event", "reference": "#NCT03421379-OtherAdverseEvent-2"}, "title": "Eye pruritus"}, {"code": {"coding": [{"code": "results", "system": "https://fevir.net/resources/CodeSystem/179423", "display": "Results"}]}, "entry": [{"type": "Evidence", "display": "Lacrimation increased as other adverse event for Glucagon Nasal Powder in NCT03421379", "reference": "#NCT03421379-OtherAdverseEvent-3-EG000"}, {"type": "Evidence", "display": "Lacrimation increased as other adverse event for Glucagon Hydrochloride Solution in NCT03421379", "reference": "#NCT03421379-OtherAdverseEvent-3-EG001"}], "focus": {"type": "EvidenceVariable", "display": "Lacrimation increased as other adverse event", "reference": "#NCT03421379-OtherAdverseEvent-3"}, "title": "Lacrimation increased"}, {"code": {"coding": [{"code": "results", "system": "https://fevir.net/resources/CodeSystem/179423", "display": "Results"}]}, "entry": [{"type": "Evidence", "display": "Diarrhoea as other adverse event for Glucagon Nasal Powder in NCT03421379", "reference": "#NCT03421379-OtherAdverseEvent-4-EG000"}, {"type": "Evidence", "display": "Diarrhoea as other adverse event for Glucagon Hydrochloride Solution in NCT03421379", "reference": "#NCT03421379-OtherAdverseEvent-4-EG001"}], "focus": {"type": "EvidenceVariable", "display": "Diarrhoea as other adverse event", "reference": "#NCT03421379-OtherAdverseEvent-4"}, "title": "Diarrhoea"}, {"code": {"coding": [{"code": "results", "system": "https://fevir.net/resources/CodeSystem/179423", "display": "Results"}]}, "entry": [{"type": "Evidence", "display": "Nausea as other adverse event for Glucagon Nasal Powder in NCT03421379", "reference": "#NCT03421379-OtherAdverseEvent-5-EG000"}, {"type": "Evidence", "display": "Nausea as other adverse event for Glucagon Hydrochloride Solution in NCT03421379", "reference": "#NCT03421379-OtherAdverseEvent-5-EG001"}], "focus": {"type": "EvidenceVariable", "display": "Nausea as other adverse event", "reference": "#NCT03421379-OtherAdverseEvent-5"}, "title": "Nausea"}, {"code": {"coding": [{"code": "results", "system": "https://fevir.net/resources/CodeSystem/179423", "display": "Results"}]}, "entry": [{"type": "Evidence", "display": "Toothache as other adverse event for Glucagon Nasal Powder in NCT03421379", "reference": "#NCT03421379-OtherAdverseEvent-6-EG000"}, {"type": "Evidence", "display": "Toothache as other adverse event for Glucagon Hydrochloride Solution in NCT03421379", "reference": "#NCT03421379-OtherAdverseEvent-6-EG001"}], "focus": {"type": "EvidenceVariable", "display": "Toothache as other adverse event", "reference": "#NCT03421379-OtherAdverseEvent-6"}, "title": "Toothache"}, {"code": {"coding": [{"code": "results", "system": "https://fevir.net/resources/CodeSystem/179423", "display": "Results"}]}, "entry": [{"type": "Evidence", "display": "Vomiting as other adverse event for Glucagon Nasal Powder in NCT03421379", "reference": "#NCT03421379-OtherAdverseEvent-7-EG000"}, {"type": "Evidence", "display": "Vomiting as other adverse event for Glucagon Hydrochloride Solution in NCT03421379", "reference": "#NCT03421379-OtherAdverseEvent-7-EG001"}], "focus": {"type": "EvidenceVariable", "display": "Vomiting as other adverse event", "reference": "#NCT03421379-OtherAdverseEvent-7"}, "title": "Vomiting"}, {"code": {"coding": [{"code": "results", "system": "https://fevir.net/resources/CodeSystem/179423", "display": "Results"}]}, "entry": [{"type": "Evidence", "display": "Feeling abnormal as other adverse event for Glucagon Nasal Powder in NCT03421379", "reference": "#NCT03421379-OtherAdverseEvent-8-EG000"}, {"type": "Evidence", "display": "Feeling abnormal as other adverse event for Glucagon Hydrochloride Solution in NCT03421379", "reference": "#NCT03421379-OtherAdverseEvent-8-EG001"}], "focus": {"type": "EvidenceVariable", "display": "Feeling abnormal as other adverse event", "reference": "#NCT03421379-OtherAdverseEvent-8"}, "title": "Feeling abnormal"}, {"code": {"coding": [{"code": "results", "system": "https://fevir.net/resources/CodeSystem/179423", "display": "Results"}]}, "entry": [{"type": "Evidence", "display": "Cystitis as other adverse event for Glucagon Nasal Powder in NCT03421379", "reference": "#NCT03421379-OtherAdverseEvent-9-EG000"}, {"type": "Evidence", "display": "Cystitis as other adverse event for Glucagon Hydrochloride Solution in NCT03421379", "reference": "#NCT03421379-OtherAdverseEvent-9-EG001"}], "focus": {"type": "EvidenceVariable", "display": "Cystitis as other adverse event", "reference": "#NCT03421379-OtherAdverseEvent-9"}, "title": "Cystitis"}, {"code": {"coding": [{"code": "results", "system": "https://fevir.net/resources/CodeSystem/179423", "display": "Results"}]}, "entry": [{"type": "Evidence", "display": "Blood pressure decreased as other adverse event for Glucagon Nasal Powder in NCT03421379", "reference": "#NCT03421379-OtherAdverseEvent-10-EG000"}, {"type": "Evidence", "display": "Blood pressure decreased as other adverse event for Glucagon Hydrochloride Solution in NCT03421379", "reference": "#NCT03421379-OtherAdverseEvent-10-EG001"}], "focus": {"type": "EvidenceVariable", "display": "Blood pressure decreased as other adverse event", "reference": "#NCT03421379-OtherAdverseEvent-10"}, "title": "Blood pressure decreased"}, {"code": {"coding": [{"code": "results", "system": "https://fevir.net/resources/CodeSystem/179423", "display": "Results"}]}, "entry": [{"type": "Evidence", "display": "Blood pressure increased as other adverse event for Glucagon Nasal Powder in NCT03421379", "reference": "#NCT03421379-OtherAdverseEvent-11-EG000"}, {"type": "Evidence", "display": "Blood pressure increased as other adverse event for Glucagon Hydrochloride Solution in NCT03421379", "reference": "#NCT03421379-OtherAdverseEvent-11-EG001"}], "focus": {"type": "EvidenceVariable", "display": "Blood pressure increased as other adverse event", "reference": "#NCT03421379-OtherAdverseEvent-11"}, "title": "Blood pressure increased"}, {"code": {"coding": [{"code": "results", "system": "https://fevir.net/resources/CodeSystem/179423", "display": "Results"}]}, "entry": [{"type": "Evidence", "display": "Back pain as other adverse event for Glucagon Nasal Powder in NCT03421379", "reference": "#NCT03421379-OtherAdverseEvent-12-EG000"}, {"type": "Evidence", "display": "Back pain as other adverse event for Glucagon Hydrochloride Solution in NCT03421379", "reference": "#NCT03421379-OtherAdverseEvent-12-EG001"}], "focus": {"type": "EvidenceVariable", "display": "Back pain as other adverse event", "reference": "#NCT03421379-OtherAdverseEvent-12"}, "title": "Back pain"}, {"code": {"coding": [{"code": "results", "system": "https://fevir.net/resources/CodeSystem/179423", "display": "Results"}]}, "entry": [{"type": "Evidence", "display": "Headache as other adverse event for Glucagon Nasal Powder in NCT03421379", "reference": "#NCT03421379-OtherAdverseEvent-13-EG000"}, {"type": "Evidence", "display": "Headache as other adverse event for Glucagon Hydrochloride Solution in NCT03421379", "reference": "#NCT03421379-OtherAdverseEvent-13-EG001"}], "focus": {"type": "EvidenceVariable", "display": "Headache as other adverse event", "reference": "#NCT03421379-OtherAdverseEvent-13"}, "title": "Headache"}, {"code": {"coding": [{"code": "results", "system": "https://fevir.net/resources/CodeSystem/179423", "display": "Results"}]}, "entry": [{"type": "Evidence", "display": "Nasal congestion as other adverse event for Glucagon Nasal Powder in NCT03421379", "reference": "#NCT03421379-OtherAdverseEvent-14-EG000"}, {"type": "Evidence", "display": "Nasal congestion as other adverse event for Glucagon Hydrochloride Solution in NCT03421379", "reference": "#NCT03421379-OtherAdverseEvent-14-EG001"}], "focus": {"type": "EvidenceVariable", "display": "Nasal congestion as other adverse event", "reference": "#NCT03421379-OtherAdverseEvent-14"}, "title": "Nasal congestion"}, {"code": {"coding": [{"code": "results", "system": "https://fevir.net/resources/CodeSystem/179423", "display": "Results"}]}, "entry": [{"type": "Evidence", "display": "Nasal pruritus as other adverse event for Glucagon Nasal Powder in NCT03421379", "reference": "#NCT03421379-OtherAdverseEvent-15-EG000"}, {"type": "Evidence", "display": "Nasal pruritus as other adverse event for Glucagon Hydrochloride Solution in NCT03421379", "reference": "#NCT03421379-OtherAdverseEvent-15-EG001"}], "focus": {"type": "EvidenceVariable", "display": "Nasal pruritus as other adverse event", "reference": "#NCT03421379-OtherAdverseEvent-15"}, "title": "Nasal pruritus"}, {"code": {"coding": [{"code": "results", "system": "https://fevir.net/resources/CodeSystem/179423", "display": "Results"}]}, "entry": [{"type": "Evidence", "display": "Oropharyngeal pain as other adverse event for Glucagon Nasal Powder in NCT03421379", "reference": "#NCT03421379-OtherAdverseEvent-16-EG000"}, {"type": "Evidence", "display": "Oropharyngeal pain as other adverse event for Glucagon Hydrochloride Solution in NCT03421379", "reference": "#NCT03421379-OtherAdverseEvent-16-EG001"}], "focus": {"type": "EvidenceVariable", "display": "Oropharyngeal pain as other adverse event", "reference": "#NCT03421379-OtherAdverseEvent-16"}, "title": "Oropharyngeal pain"}, {"code": {"coding": [{"code": "results", "system": "https://fevir.net/resources/CodeSystem/179423", "display": "Results"}]}, "entry": [{"type": "Evidence", "display": "Rhinalgia as other adverse event for Glucagon Nasal Powder in NCT03421379", "reference": "#NCT03421379-OtherAdverseEvent-17-EG000"}, {"type": "Evidence", "display": "Rhinalgia as other adverse event for Glucagon Hydrochloride Solution in NCT03421379", "reference": "#NCT03421379-OtherAdverseEvent-17-EG001"}], "focus": {"type": "EvidenceVariable", "display": "Rhinalgia as other adverse event", "reference": "#NCT03421379-OtherAdverseEvent-17"}, "title": "Rhinalgia"}, {"code": {"coding": [{"code": "results", "system": "https://fevir.net/resources/CodeSystem/179423", "display": "Results"}]}, "entry": [{"type": "Evidence", "display": "Cold sweat as other adverse event for Glucagon Nasal Powder in NCT03421379", "reference": "#NCT03421379-OtherAdverseEvent-18-EG000"}, {"type": "Evidence", "display": "Cold sweat as other adverse event for Glucagon Hydrochloride Solution in NCT03421379", "reference": "#NCT03421379-OtherAdverseEvent-18-EG001"}], "focus": {"type": "EvidenceVariable", "display": "Cold sweat as other adverse event", "reference": "#NCT03421379-OtherAdverseEvent-18"}, "title": "Cold sweat"}, {"code": {"coding": [{"code": "results", "system": "https://fevir.net/resources/CodeSystem/179423", "display": "Results"}]}, "entry": [{"type": "Evidence", "display": "Hot flush as other adverse event for Glucagon Nasal Powder in NCT03421379", "reference": "#NCT03421379-OtherAdverseEvent-19-EG000"}, {"type": "Evidence", "display": "Hot flush as other adverse event for Glucagon Hydrochloride Solution in NCT03421379", "reference": "#NCT03421379-OtherAdverseEvent-19-EG001"}], "focus": {"type": "EvidenceVariable", "display": "Hot flush as other adverse event", "reference": "#NCT03421379-OtherAdverseEvent-19"}, "title": "Hot flush"}, {"code": {"coding": [{"code": "results", "system": "https://fevir.net/resources/CodeSystem/179423", "display": "Results"}]}, "entry": [{"type": "Evidence", "display": "Hypertension as other adverse event for Glucagon Nasal Powder in NCT03421379", "reference": "#NCT03421379-OtherAdverseEvent-20-EG000"}, {"type": "Evidence", "display": "Hypertension as other adverse event for Glucagon Hydrochloride Solution in NCT03421379", "reference": "#NCT03421379-OtherAdverseEvent-20-EG001"}], "focus": {"type": "EvidenceVariable", "display": "Hypertension as other adverse event", "reference": "#NCT03421379-OtherAdverseEvent-20"}, "title": "Hypertension"}, {"code": {"coding": [{"code": "results", "system": "https://fevir.net/resources/CodeSystem/179423", "display": "Results"}]}, "entry": [{"type": "Evidence", "display": "Peripheral coldness as other adverse event for Glucagon Nasal Powder in NCT03421379", "reference": "#NCT03421379-OtherAdverseEvent-21-EG000"}, {"type": "Evidence", "display": "Peripheral coldness as other adverse event for Glucagon Hydrochloride Solution in NCT03421379", "reference": "#NCT03421379-OtherAdverseEvent-21-EG001"}], "focus": {"type": "EvidenceVariable", "display": "Peripheral coldness as other adverse event", "reference": "#NCT03421379-OtherAdverseEvent-21"}, "title": "Peripheral coldness"}]}]}