{"resourceType": "ResearchStudy", "id": "267223", "meta": {"profile": ["http://hl7.org/fhir/uv/ebm/StructureDefinition/study-registry-record"], "versionId": "5", "lastUpdated": "2025-09-14T18:30:51.295Z"}, "contained": [{"resourceType": "EvidenceVariable", "id": "NCT03421379-drug------glucagon-nasal-powder", "meta": {"profile": ["http://hl7.org/fhir/uv/ebm/StructureDefinition/variable-definition"]}, "name": "NCT03421379_drug______glucagon_nasal_powder", "title": "Glucagon Nasal Powder", "status": "active", "description": "Administered intranasally", "note": [{"text": "suggested alternative name: LY900018"}], "handling": "boolean", "classifier": [{"text": "Intervention Type: DRUG"}]}, {"resourceType": "EvidenceVariable", "id": "NCT03421379-drug------glucagon-hydrochloride-solution", "meta": {"profile": ["http://hl7.org/fhir/uv/ebm/StructureDefinition/variable-definition"]}, "name": "NCT03421379_drug______glucagon_hydrochloride_solution", "title": "Glucagon Hydrochloride Solution", "status": "active", "description": "Administered IM", "note": [{"text": "suggested alternative name: GlucaGen\u00ae"}], "handling": "boolean", "classifier": [{"text": "Intervention Type: DRUG"}]}, {"resourceType": "Group", "id": "NCT03421379-comparison-group-0", "extension": [{"url": "http://hl7.org/fhir/StructureDefinition/artifact-author", "valueContactDetail": {"name": "Computable Publishing\u00ae: [System]-to-FEvIR Converter"}}], "identifier": [{"type": {"text": "FEvIR Linking Identifier"}, "system": "https://fevir.net/FLI", "value": "NCT03421379-comparison-group-0", "assigner": {"display": "Computable Publishing LLC"}}], "title": "NCT03421379 Comparison Group: Glucagon Nasal Powder", "status": "active", "description": "A single dose of 3 milligram (mg) glucagon nasal powder administered intranasally.", "membership": "conceptual", "code": {"text": "Experimental"}, "characteristic": [{"code": {"text": "Exposed to"}, "valueReference": {"reference": "#NCT03421379-drug------glucagon-nasal-powder", "type": "EvidenceVariable", "display": "Drug: Glucagon Nasal Powder"}, "exclude": false}]}, {"resourceType": "Group", "id": "NCT03421379-comparison-group-1", "extension": [{"url": "http://hl7.org/fhir/StructureDefinition/artifact-author", "valueContactDetail": {"name": "Computable Publishing\u00ae: [System]-to-FEvIR Converter"}}], "identifier": [{"type": {"text": "FEvIR Linking Identifier"}, "system": "https://fevir.net/FLI", "value": "NCT03421379-comparison-group-1", "assigner": {"display": "Computable Publishing LLC"}}], "title": "NCT03421379 Comparison Group: Glucagon Hydrochloride Solution", "status": "active", "description": "A single dose of 1 mg glucagon hydrochloride solution was administered intramuscular (IM)", "membership": "conceptual", "code": {"text": "Active Comparator"}, "characteristic": [{"code": {"text": "Exposed to"}, "valueReference": {"reference": "#NCT03421379-drug------glucagon-hydrochloride-solution", "type": "EvidenceVariable", "display": "Drug: Glucagon Hydrochloride Solution"}, "exclude": false}]}, {"resourceType": "Location", "id": "NCT03421379-Location-0", "name": "For additional information regarding investigative sites for this trial, contact 1-877-CTLILLY (1-877-285-4559, 1-317-615-4559) Mon - Fri from 9 AM to 5 PM Eastern Time (UTC/GMT - 5 hours, EST), or speak with your personal physician.", "address": {"city": "Fukuoka", "postalCode": "812-0025", "country": "Japan"}, "position": {"longitude": 130.41667, "latitude": 33.6}}, {"resourceType": "Location", "id": "NCT03421379-Location-1", "name": "For additional information regarding investigative sites for this trial, contact 1-877-CTLILLY (1-877-285-4559, 1-317-615-4559) Mon - Fri from 9 AM to 5 PM Eastern Time (UTC/GMT - 5 hours, EST), or speak with your personal physician.", "address": {"city": "Tokyo", "postalCode": "130-0004", "country": "Japan"}, "position": {"longitude": 139.69171, "latitude": 35.6895}}, {"resourceType": "Location", "id": "NCT03421379-Location-2", "name": "For additional information regarding investigative sites for this trial, contact 1-888-545-5972 Mon - Fri, 9 AM to 4 PM or 1-877-CTLILLY (1-877-285-4559, 1-317-615-4559) Mon - Fri, 9 AM to 5 PM Eastern Time or speak with your personal physician.", "address": {"city": "Tokyo", "postalCode": "162-0053", "country": "Japan"}, "position": {"longitude": 139.69171, "latitude": 35.6895}}, {"resourceType": "Location", "id": "NCT03421379-Location-3", "name": "For additional information regarding investigative sites for this trial, contact 1-877-CTLILLY (1-877-285-4559, 1-317-615-4559) Mon - Fri from 9 AM to 5 PM Eastern Time (UTC/GMT - 5 hours, EST), or speak with your personal physician.", "address": {"city": "Tokyo", "postalCode": "169-0073", "country": "Japan"}, "position": {"longitude": 139.69171, "latitude": 35.6895}}], "extension": [{"extension": [{"url": "activity", "valueCodeableConcept": {"coding": [{"system": "http://hl7.org/fhir/research-study-registration-activity", "code": "registration-submission", "display": "Registration submission"}]}}, {"url": "actual", "valueBoolean": true}, {"url": "period", "valuePeriod": {"start": "2018-01-30"}}], "url": "http://hl7.org/fhir/StructureDefinition/researchStudy-studyRegistration"}, {"extension": [{"url": "activity", "valueCodeableConcept": {"coding": [{"system": "http://hl7.org/fhir/research-study-registration-activity", "code": "results-submission", "display": "Results submission"}]}}, {"url": "actual", "valueBoolean": true}, {"url": "period", "valuePeriod": {"start": "2019-08-14"}}], "url": "http://hl7.org/fhir/StructureDefinition/researchStudy-studyRegistration"}, {"extension": [{"url": "activity", "valueCodeableConcept": {"coding": [{"system": "http://hl7.org/fhir/research-study-registration-activity", "code": "registration-submission-qc", "display": "Registration submission Quality Check"}]}}, {"url": "actual", "valueBoolean": true}, {"url": "period", "valuePeriod": {"start": "2018-01-30"}}], "url": "http://hl7.org/fhir/StructureDefinition/researchStudy-studyRegistration"}, {"extension": [{"url": "activity", "valueCodeableConcept": {"coding": [{"system": "http://hl7.org/fhir/research-study-registration-activity", "code": "results-submission-qc", "display": "Results submission Quality Check"}]}}, {"url": "actual", "valueBoolean": true}, {"url": "period", "valuePeriod": {"start": "2019-09-18"}}], "url": "http://hl7.org/fhir/StructureDefinition/researchStudy-studyRegistration"}, {"extension": [{"url": "activity", "valueCodeableConcept": {"coding": [{"system": "http://hl7.org/fhir/research-study-registration-activity", "code": "record-verification", "display": "Record Verification"}]}}, {"url": "actual", "valueBoolean": true}, {"url": "period", "valuePeriod": {"end": "2019-09"}}], "url": "http://hl7.org/fhir/StructureDefinition/researchStudy-studyRegistration"}, {"extension": [{"url": "activity", "valueCodeableConcept": {"coding": [{"system": "http://hl7.org/fhir/research-study-registration-activity", "code": "update-submission", "display": "Update submission"}]}}, {"url": "actual", "valueBoolean": true}, {"url": "period", "valuePeriod": {"end": "2019-09-18"}}], "url": "http://hl7.org/fhir/StructureDefinition/researchStudy-studyRegistration"}, {"extension": [{"url": "activity", "valueCodeableConcept": {"coding": [{"system": "http://hl7.org/fhir/research-study-registration-activity", "code": "registration-posting", "display": "Registration posting"}]}}, {"url": "actual", "valueBoolean": true}, {"url": "period", "valuePeriod": {"start": "2018-02-05"}}], "url": "http://hl7.org/fhir/StructureDefinition/researchStudy-studyRegistration"}, {"extension": [{"url": "activity", "valueCodeableConcept": {"coding": [{"system": "http://hl7.org/fhir/research-study-registration-activity", "code": "results-posting", "display": "Results posting"}]}}, {"url": "actual", "valueBoolean": true}, {"url": "period", "valuePeriod": {"start": "2019-10-08"}}], "url": "http://hl7.org/fhir/StructureDefinition/researchStudy-studyRegistration"}, {"extension": [{"url": "activity", "valueCodeableConcept": {"coding": [{"system": "http://hl7.org/fhir/research-study-registration-activity", "code": "primary-outcome-data-collection", "display": "Primary outcome data collection"}]}}, {"url": "actual", "valueBoolean": true}, {"url": "period", "valuePeriod": {"end": "2018-08-20"}}], "url": "http://hl7.org/fhir/StructureDefinition/researchStudy-studyRegistration"}, {"extension": [{"url": "activity", "valueCodeableConcept": {"coding": [{"system": "http://hl7.org/fhir/research-study-registration-activity", "code": "update-posting", "display": "Update posting"}]}}, {"url": "actual", "valueBoolean": true}, {"url": "period", "valuePeriod": {"end": "2019-10-08"}}], "url": "http://hl7.org/fhir/StructureDefinition/researchStudy-studyRegistration"}, {"url": "http://hl7.org/fhir/StructureDefinition/artifact-author", "valueContactDetail": {"name": "Computable Publishing\u00ae: ClinicalTrials.gov-to-FEvIR Converter"}}], "identifier": [{"type": {"coding": [{"system": "http://terminology.hl7.org/CodeSystem/v2-0203", "code": "ACSN", "display": "Accession ID"}], "text": "FEvIR Object Identifier"}, "system": "https://fevir.net/FOI", "value": "267223", "assigner": {"display": "Computable Publishing LLC"}}, {"use": "official", "system": "https://clinicaltrials.gov", "value": "NCT03421379"}, {"value": "16962", "assigner": {"display": "Eli Lilly and Company"}}, {"value": "I8R-JE-IGBJ", "type": {"coding": [{"system": "https://clinicaltrials.gov/data-about-studies/study-data-structure#enum-SecondaryIdType", "code": "OTHER", "display": "Other Identifier"}]}, "assigner": {"display": "Eli Lilly and Company"}}, {"type": {"text": "FEvIR Linking Identifier"}, "system": "https://fevir.net/FLI", "value": "NCT03421379 FHIR Transform", "assigner": {"display": "Computable Publishing LLC"}}], "name": "NCT03421379_FHIR_Transform", "title": "A Study of Nasal Glucagon (LY900018) in Japanese Participants With Diabetes Mellitus", "label": [{"type": {"coding": [{"system": "http://hl7.org/fhir/title-type", "code": "official", "display": "Official title"}]}, "value": "A Phase 3 Study of Nasal Glucagon (LY900018) Compared to Intramuscular Glucagon for Treatment of Insulin-induced Hypoglycemia in Japanese Patients With Diabetes Mellitus"}], "relatesTo": [{"type": "transforms", "targetUri": "https://clinicaltrials.gov/api/v2/studies/NCT03421379?format=json"}, {"type": "transformed-with", "targetAttachment": {"url": "https://fevir.net/resources/Project/29885", "title": "Computable Publishing\u00ae: ClinicalTrials.gov-to-FEvIR Converter"}}, {"type": "cites", "targetReference": {"type": "Citation", "identifier": {"system": "https://pubmed.ncbi.nlm.nih.gov", "value": "38444629"}, "display": "Seaquist E, Gimenez M, Yan Y, Matsuhisa M, Kao CY, Wadwa RP, Nagai Y, Khunti K. Nasal Glucagon Reverses Insulin-induced Hypoglycemia With Less Rebound Hyperglycemia: Pooled Analysis of Clinical Trials. J Endocr Soc. 2024 Feb 26;8(4):bvae034. doi: 10.1210/jendso/bvae034. eCollection 2024 Feb 19."}}, {"type": "supported-with", "targetAttachment": {"url": "https://www.clinicalstudydatarequest.com", "title": "IPD Sharing URL"}}, {"type": "documentation", "targetAttachment": {"contentType": "application/pdf", "url": "https://cdn.clinicaltrials.gov/large-docs/79/NCT03421379/Prot_000.pdf", "size": "684592", "title": "ProtStudy Protocol", "creation": "2017-12-05"}}, {"type": "documentation", "targetAttachment": {"contentType": "application/pdf", "url": "https://cdn.clinicaltrials.gov/large-docs/79/NCT03421379/SAP_001.pdf", "size": "444216", "title": "SAPStatistical Analysis Plan", "creation": "2018-02-02"}}], "status": "active", "primaryPurposeType": {"coding": [{"system": "http://terminology.hl7.org/CodeSystem/research-study-prim-purp-type", "code": "treatment", "display": "Treatment"}]}, "phase": {"coding": [{"system": "http://terminology.hl7.org/CodeSystem/research-study-phase", "code": "phase-3", "display": "Phase 3"}]}, "studyDesign": [{"text": "Design Masking: None (Open Label)"}, {"coding": [{"system": "https://fevir.net/sevco", "code": "SEVCO:01003", "display": "randomized assignment"}]}, {"coding": [{"system": "https://fevir.net/sevco", "code": "SEVCO:01012", "display": "Crossover cohort design"}]}, {"coding": [{"system": "https://fevir.net/sevco", "code": "SEVCO:01001", "display": "interventional research"}]}], "condition": [{"text": "Diabetes Mellitus"}], "descriptionSummary": "The purpose of this study is to determine the efficacy and safety of nasal glucagon compared to intramuscular (IM) glucagon for treatment of insulin-induced hypoglycemia in Japanese participants with diabetes mellitus.", "site": [{"reference": "#NCT03421379-Location-0", "type": "Location"}, {"reference": "#NCT03421379-Location-1", "type": "Location"}, {"reference": "#NCT03421379-Location-2", "type": "Location"}, {"reference": "#NCT03421379-Location-3", "type": "Location"}], "classifier": [{"text": "IPDSharing: Yes"}, {"text": "IPDSharingDescription: Anonymized individual patient level data will be provided in a secure access environment upon approval of a research proposal and a signed data sharing agreement."}, {"text": "IPDSharingInfoType: Study Protocol"}, {"text": "IPDSharingInfoType: Statistical Analysis Plan (SAP)"}, {"text": "IPDSharingInfoType: Clinical Study Report (CSR)"}, {"text": "IPDSharingTimeFrame: Data are available 6 months after the primary publication and approval of the indication studied in the US and European Union (EU), whichever is later. Data will be indefinitely available for requesting."}, {"text": "IPDSharingAccessCriteria: A research proposal must be approved by an independent review panel and researchers must sign a data sharing agreement."}, {"text": "Has Results: True"}, {"text": "Oversight Classifier: oversightHasDmc False"}, {"text": "Oversight Classifier: isFdaRegulatedDrug True"}, {"text": "Oversight Classifier: isFdaRegulatedDevice False"}, {"text": "Oversight Classifier: isUsExport True"}, {"text": "AgreementPISponsorEmployee: False"}, {"text": "AgreementRestrictionType: GT60"}, {"text": "AgreementRestrictiveAgreement: True"}], "associatedParty": [{"name": "Eli Lilly and Company", "role": {"coding": [{"system": "http://hl7.org/fhir/research-study-party-role", "code": "sponsor", "display": "Sponsor"}]}, "classifier": [{"text": "INDUSTRY"}]}, {"name": "Eli Lilly and Company", "role": {"coding": [{"system": "http://hl7.org/fhir/research-study-party-role", "code": "lead-sponsor", "display": "Lead sponsor"}]}, "classifier": [{"text": "INDUSTRY"}]}, {"name": "Call 1-877-CTLILLY (1-877-285-4559) or 1-317-615-4559 Mon - Fri 9 AM - 5 PM Eastern time (UTC/GMT - 5 hours, EST)", "role": {"coding": [{"system": "http://hl7.org/fhir/research-study-party-role", "code": "study-chair", "display": "Study chair"}]}, "party": {"display": "Eli Lilly and Company"}}], "progressStatus": [{"state": {"coding": [{"system": "http://hl7.org/fhir/research-study-status", "code": "completed", "display": "Completed"}]}}, {"state": {"coding": [{"system": "http://hl7.org/fhir/research-study-status", "code": "overall-study", "display": "Overall study"}]}, "actual": true, "period": {"start": "2018-02-21", "end": "2018-08-20"}}], "recruitment": {"actualNumber": 75, "eligibility": {"type": "Group", "identifier": {"type": {"text": "FEvIR Linking Identifier"}, "system": "https://fevir.net/FLI", "value": "NCT03421379 Eligibility Criteria", "assigner": {"display": "Computable Publishing LLC"}}, "display": "NCT03421379 Eligibility Criteria", "reference": "Group/267225"}}, "comparisonGroup": [{"eligibility": {"reference": "#NCT03421379-comparison-group-0", "type": "Group", "display": "Glucagon Nasal Powder: A single dose of 3 milligram (mg) glucagon nasal powder administered intranasally."}}, {"eligibility": {"reference": "#NCT03421379-comparison-group-1", "type": "Group", "display": "Glucagon Hydrochloride Solution: A single dose of 1 mg glucagon hydrochloride solution was administered intramuscular (IM)"}}], "objective": [{"type": {"coding": [{"system": "http://terminology.hl7.org/CodeSystem/research-study-objective-type", "code": "primary", "display": "Primary"}]}, "outcomeMeasure": [{"name": "Percentage of Participants Achieving Treatment Success During Controlled Insulin-Induced Hypoglycemia", "type": {"coding": [{"system": "http://terminology.hl7.org/CodeSystem/research-study-objective-type", "code": "primary", "display": "Primary"}]}, "description": "Percentage of participants who achieved treatment success during the controlled insulin-induced hypoglycemia in participants with type 1 diabetes mellitus (T1DM) and participants with type 2 diabetes mellitus (T2DM).Treatment success is defined as an increase in plasma glucose to greater than or equal to (\u2265) 70 milligrams per deciliter (mg/dL) or an increase of \u226520 mg/dL from plasma glucose nadir, without receiving additional actions to increase the plasma glucose concentration. Nadir is defined as the minimum plasma glucose concentration at the time of or within 10 minutes following glucagon administration.", "endpoint": {"type": "EvidenceVariable", "identifier": {"type": {"text": "FEvIR Linking Identifier"}, "system": "https://fevir.net/FLI", "value": "NCT03421379-primaryOutcome-0", "assigner": {"display": "Computable Publishing LLC"}}, "reference": "EvidenceVariable/267226"}}]}, {"type": {"coding": [{"system": "http://terminology.hl7.org/CodeSystem/research-study-objective-type", "code": "secondary", "display": "Secondary"}]}, "outcomeMeasure": [{"name": "Pharmacodynamics (PD): Change From Baseline in Maximal Blood Glucose (BGmax) of Glucagon Nasal Powder and Glucagon Hydrochloride Intramuscular (IM)", "type": {"coding": [{"system": "http://terminology.hl7.org/CodeSystem/research-study-objective-type", "code": "secondary", "display": "Secondary"}]}, "description": "PD assessment measured the change from Baseline in maximal blood glucose (BGmax) of Glucagon Nasal Powder and Glucagon Hydrochloride intramuscular (IM).", "endpoint": {"type": "EvidenceVariable", "identifier": {"type": {"text": "FEvIR Linking Identifier"}, "system": "https://fevir.net/FLI", "value": "NCT03421379-secondaryOutcome-0", "assigner": {"display": "Computable Publishing LLC"}}, "reference": "EvidenceVariable/267227"}}, {"name": "PD: Time to Maximal Concentration (Tmax) of Glucagon Nasal Powder and Glucagon Hydrochloride IM", "type": {"coding": [{"system": "http://terminology.hl7.org/CodeSystem/research-study-objective-type", "code": "secondary", "display": "Secondary"}]}, "description": "PD assessment measured the time to maximal concentration (Tmax) of Glucagon Nasal Powder and Glucagon Hydrochloride IM.", "endpoint": {"type": "EvidenceVariable", "identifier": {"type": {"text": "FEvIR Linking Identifier"}, "system": "https://fevir.net/FLI", "value": "NCT03421379-secondaryOutcome-1", "assigner": {"display": "Computable Publishing LLC"}}, "reference": "EvidenceVariable/267228"}}, {"name": "Pharmacokinetics (PK): Change From Baseline in Area Under the Concentration Versus Time Curve From Zero to Time t (AUC [0-tLast]) of Glucagon Nasal Powder and Glucagon Hydrochloride IM", "type": {"coding": [{"system": "http://terminology.hl7.org/CodeSystem/research-study-objective-type", "code": "secondary", "display": "Secondary"}]}, "description": "PK assessment measured the change from baseline in the area under the concentration versus time curve from time zero to time t, where t is the last time point with a measurable concentration of Glucagon Nasal Powder and Glucagon Hydrochloride IM.", "endpoint": {"type": "EvidenceVariable", "identifier": {"type": {"text": "FEvIR Linking Identifier"}, "system": "https://fevir.net/FLI", "value": "NCT03421379-secondaryOutcome-2", "assigner": {"display": "Computable Publishing LLC"}}, "reference": "EvidenceVariable/267229"}}, {"name": "PK: Change From Baseline in Maximal Concentration (Cmax) of Glucagon Nasal Powder and Glucagon Hydrochloride IM", "type": {"coding": [{"system": "http://terminology.hl7.org/CodeSystem/research-study-objective-type", "code": "secondary", "display": "Secondary"}]}, "description": "PK assessment measured the change from baseline in maximal concentration (Cmax) of glucagon nasal powder and glucagon hydrochloride IM.", "endpoint": {"type": "EvidenceVariable", "identifier": {"type": {"text": "FEvIR Linking Identifier"}, "system": "https://fevir.net/FLI", "value": "NCT03421379-secondaryOutcome-3", "assigner": {"display": "Computable Publishing LLC"}}, "reference": "EvidenceVariable/267230"}}, {"name": "PK: Change From Baseline in Tmax of Glucagon Nasal Powder and Glucagon Hydrochloride IM", "type": {"coding": [{"system": "http://terminology.hl7.org/CodeSystem/research-study-objective-type", "code": "secondary", "display": "Secondary"}]}, "description": "PK assessment measured the change from baseline in Tmax of Glucagon Nasal Powder and Glucagon Hydrochloride IM.", "endpoint": {"type": "EvidenceVariable", "identifier": {"type": {"text": "FEvIR Linking Identifier"}, "system": "https://fevir.net/FLI", "value": "NCT03421379-secondaryOutcome-4", "assigner": {"display": "Computable Publishing LLC"}}, "reference": "EvidenceVariable/267231"}}]}], "result": [{"type": "Composition", "display": "Results Section for NCT03421379", "identifier": {"type": {"text": "FEvIR Linking Identifier"}, "system": "https://fevir.net/FLI", "value": "NCT03421379 Results Report", "assigner": {"display": "Computable Publishing LLC"}}, "reference": "Composition/267224"}], "url": "https://fevir.net/resources/ResearchStudy/267223", "citeAs": "A Study of Nasal Glucagon (LY900018) in Japanese Participants With Diabetes Mellitus [Database Entry: FHIR ResearchStudy Resource]. Contributors: Computable Publishing\u00ae: ClinicalTrials.gov-to-FEvIR Converter [Authors/Creators]. In: Fast Evidence Interoperability Resources (FEvIR) Platform, FOI 267223. Revised 2025-09-14. Available at: https://fevir.net/resources/ResearchStudy/267223. Computable resource at: https://fevir.net/resources/ResearchStudy/267223#json."}