{"id": "267245", "url": "https://fevir.net/resources/ResearchStudy/267245", "meta": {"profile": ["http://hl7.org/fhir/uv/ebm/StructureDefinition/study-design"], "versionId": "66", "lastUpdated": "2025-07-17T12:27:29.152Z"}, "name": "NCT03421379_FHIR_Transform_M11_IGBJ", "site": [{"type": "Location", "reference": "#NCT03421379-Location-0"}, {"type": "Location", "reference": "#NCT03421379-Location-1"}, {"type": "Location", "reference": "#NCT03421379-Location-2"}, {"type": "Location", "reference": "#NCT03421379-Location-3"}], "text": {"div": "<div xmlns=\"http://www.w3.org/1999/xhtml\" xml:lang=\"en\" lang=\"en\">[No data.]</div>", "status": "empty"}, "focus": [{"concept": {"coding": [{"code": "LY900018", "system": "http://example.org", "display": "Glucagon"}]}, "reference": {"type": "SubstanceDefinition", "display": "Glucagon (LY900018)"}}], "label": [{"type": {"coding": [{"code": "official", "system": "http://hl7.org/fhir/title-type", "display": "Official title"}]}, "value": "A Phase 3 Study of Nasal Glucagon (LY900018) Compared to Intramuscular Glucagon for Treatment of Insulin-induced Hypoglycemia in Japanese Patients With Diabetes Mellitus"}, {"type": {"coding": [{"code": "acronym", "system": "http://hl7.org/fhir/title-type", "display": "Acronym"}]}, "value": "IGBJ"}, {"type": {"coding": [{"code": "short-title", "system": "http://hl7.org/fhir/title-type", "display": "Short title"}]}, "value": "M11 IGBJ EXAMPLE"}], "phase": {"coding": [{"code": "phase-3", "system": "http://terminology.hl7.org/CodeSystem/research-study-phase", "display": "Phase 3"}]}, "title": "A Study of Nasal Glucagon (LY900018) in Japanese Participants With Diabetes Mellitus - M11 Example", "citeAs": "A Study of Nasal Glucagon (LY900018) in Japanese Participants With Diabetes Mellitus - M11 Example [Database Entry: FHIR ResearchStudy Resource]. Contributors: Computable Publishing\u00ae: ClinicalTrials.gov-to-FEvIR Converter, Brian S. Alper [Authors/Creators]. In: Fast Evidence Interoperability Resources (FEvIR) Platform, FOI 267245. Revised 2025-07-17. Available at: https://fevir.net/resources/ResearchStudy/267245. Computable resource at: https://fevir.net/resources/ResearchStudy/267245#json.", "result": [{"type": "Composition", "display": "Results Section for NCT03421379", "identifier": {"type": {"text": "FEvIR Linking Identifier"}, "value": "NCT03421379 Results Report", "system": "https://fevir.net/FLI", "assigner": {"display": "Computable Publishing LLC"}}}], "status": "active", "version": "(a)", "condition": [{"text": "Diabetes Mellitus"}, {"text": "insulin-induced hypoglycemia"}], "contained": [{"id": "NCT03421379-Location-0", "name": "For additional information regarding investigative sites for this trial, contact 1-877-CTLILLY (1-877-285-4559, 1-317-615-4559) Mon - Fri from 9 AM to 5 PM Eastern Time (UTC/GMT - 5 hours, EST), or speak with your personal physician.", "address": {"city": "Fukuoka", "country": "Japan", "postalCode": "812-0025"}, "position": {"latitude": 33.6, "longitude": 130.41667}, "resourceType": "Location"}, {"id": "NCT03421379-Location-1", "name": "For additional information regarding investigative sites for this trial, contact 1-877-CTLILLY (1-877-285-4559, 1-317-615-4559) Mon - Fri from 9 AM to 5 PM Eastern Time (UTC/GMT - 5 hours, EST), or speak with your personal physician.", "address": {"city": "Tokyo", "country": "Japan", "postalCode": "130-0004"}, "position": {"latitude": 35.6895, "longitude": 139.69171}, "resourceType": "Location"}, {"id": "NCT03421379-Location-2", "name": "For additional information regarding investigative sites for this trial, contact 1-888-545-5972 Mon - Fri, 9 AM to 4 PM or 1-877-CTLILLY (1-877-285-4559, 1-317-615-4559) Mon - Fri, 9 AM to 5 PM Eastern Time or speak with your personal physician.", "address": {"city": "Tokyo", "country": "Japan", "postalCode": "162-0053"}, "position": {"latitude": 35.6895, "longitude": 139.69171}, "resourceType": "Location"}, {"id": "NCT03421379-Location-3", "name": "For additional information regarding investigative sites for this trial, contact 1-877-CTLILLY (1-877-285-4559, 1-317-615-4559) Mon - Fri from 9 AM to 5 PM Eastern Time (UTC/GMT - 5 hours, EST), or speak with your personal physician.", "address": {"city": "Tokyo", "country": "Japan", "postalCode": "169-0073"}, "position": {"latitude": 35.6895, "longitude": 139.69171}, "resourceType": "Location"}], "extension": [{"url": "http://hl7.org/fhir/StructureDefinition/artifact-author", "valueContactDetail": {"name": "Computable Publishing\u00ae: ClinicalTrials.gov-to-FEvIR Converter"}}, {"url": "http://hl7.org/fhir/StructureDefinition/artifact-author", "valueContactDetail": {"name": "Brian S. Alper"}}, {"url": "http://hl7.org/fhir/uv/ebm/StructureDefinition/research-study-sponsor-confidentiality-statement", "valueString": "This study does not have a confidentiality statement, but this is an example of how the data would appear if there was such a statement."}, {"url": "http://hl7.org/fhir/uv/ebm/StructureDefinition/research-study-sae-reporting-method", "valueString": "Report Serious Adverse Events to the sponsor by phone. Refer to Section 9.4 for detailed reporting instructions."}, {"url": "http://hl7.org/fhir/uv/ebm/StructureDefinition/research-study-study-amendment", "extension": [{"url": "details", "valueString": "This protocol has not been amended previously."}, {"url": "description", "valueString": "Protocol I8R-JE-IGBJ A Phase 3 Study of Nasal Glucagon (LY900018) Compared to Intramuscular Glucagon for Treatment of Insulin-induced Hypoglycemia in Japanese Patients with Diabetes Mellitus has been amended. The new protocol is indicated by Amendment (a) and will be used to conduct the study in place of any preceding version of the protocol. The overall changes and rationale for the changes made to this protocol are as follows: (1) An exclusion criterion for patients with retinopathy or maculopathy was added due to the potential risk of fundal hemorrhage induced by hypoglycemia. (2) The GlucaGen reconstitution volume was changed from 1.0 mL to 1.1 mL in accordance with instructions in the Summary of Product Characteristics (2015)."}, {"url": "rationale", "valueString": "Updates to address safety concern & align with product guidelines."}, {"url": "substantialImpactSafety", "valueBoolean": true}, {"url": "substantialImpactSafetyComment", "valueString": "Specifically implemented to decrease safety risks."}, {"url": "substantialImpactReliability", "valueBoolean": false}, {"url": "primaryReason", "valueCodeableConcept": {"text": "Safety", "coding": [{"code": "2", "system": "http://spor.ema.europa.eu/v1/example-reason", "display": "Safety"}]}}]}, {"url": "http://hl7.org/fhir/uv/ebm/StructureDefinition/artifact-publication-status", "valueCodeableConcept": {"coding": [{"code": "active", "system": "http://terminology.hl7.org/CodeSystem/cited-artifact-status-type", "display": "Active"}]}}], "objective": [{"name": "Treatment success", "type": {"coding": [{"code": "primary", "system": "http://hl7.org/fhir/research-study-objective-type", "display": "Primary"}]}, "description": "To demonstrate that 3 mg LY900018 is non-inferior to 1 mg IMG for the proportion of patients achieving treatment success from insulin-induced hypoglycemia using a non-inferiority margin of 10%", "outcomeMeasure": [{"name": "Proportion achieving treatment success", "type": {"coding": [{"code": "primary", "system": "http://hl7.org/fhir/research-study-objective-type", "display": "Primary"}]}, "endpoint": {"type": "EvidenceVariable", "display": "Percentage of Participants Achieving Treatment Success During Controlled Insulin-Induced Hypoglycemia (NCT03421379)", "identifier": {"type": {"text": "FEvIR Linking Identifier"}, "value": "NCT03421379-primaryOutcome-0", "system": "https://fevir.net/FLI", "assigner": {"display": "Computable Publishing LLC"}}}, "comparator": {"type": "Group", "display": "Glucagon Hydrochloride Solution (Active Comparator)", "reference": "Group/370702"}, "population": {"type": "Group", "display": "M11 IGBJ Protocol Example Eligibility Criteria", "reference": "Group/267506"}, "description": "The proportion of patients achieving treatment success defined as either an increase in PG to >70 mg/dL or an increase of >20 mg/dL from nadir within 30 minutes after administration of glucagon. The nadir is defined as the minimum PG value at the time of or within 10 minutes following glucagon administration.", "intervention": {"type": "Group", "display": "Glucagon Nasal Powder (Experimental)", "reference": "Group/370701"}, "summaryMeasure": {"coding": [{"code": "STATO:0000424", "system": "https://fevir.net/sevco", "display": "risk difference"}]}}]}, {"name": "Safety and tolerability", "type": {"coding": [{"code": "secondary", "system": "http://hl7.org/fhir/research-study-objective-type", "display": "Secondary"}]}, "description": "To compare the safety and tolerability of 3 mg LY900018 with 1 mg IMG", "outcomeMeasure": [{"endpoint": {"display": "serious adverse events (SAEs)"}}, {"endpoint": {"display": "treatment-emergent adverse events (TEAEs)"}, "description": "treatment-emergent adverse events (TEAEs) (including gastrointestinal, nasal, and non-nasal AEs)"}, {"endpoint": {"display": "vital signs"}}]}, {"name": "To characterize the PK profile of 3 mg LY900018 compared to 1 mg IMG", "type": {"coding": [{"code": "secondary", "system": "http://hl7.org/fhir/research-study-objective-type", "display": "Secondary"}]}, "description": "PK parameters include AUC, Cmax, Tmax PD parameters include BGmax and Tmax", "outcomeMeasure": [{"type": {"coding": [{"code": "secondary", "system": "http://hl7.org/fhir/research-study-objective-type", "display": "Secondary"}]}, "endpoint": {"type": "EvidenceVariable", "display": "Pharmacodynamics (PD): Change From Baseline in Maximal Blood Glucose (BGmax) of Glucagon Nasal Powder and Glucagon Hydrochloride Intramuscular (IM) (NCT03421379)", "identifier": {"type": {"text": "FEvIR Linking Identifier"}, "value": "NCT03421379-secondaryOutcome-0", "system": "https://fevir.net/FLI", "assigner": {"display": "Computable Publishing LLC"}}}}, {"type": {"coding": [{"code": "secondary", "system": "http://hl7.org/fhir/research-study-objective-type", "display": "Secondary"}]}, "endpoint": {"type": "EvidenceVariable", "display": "PD: Time to Maximal Concentration (Tmax) of Glucagon Nasal Powder and Glucagon Hydrochloride IM (NCT03421379)", "identifier": {"type": {"text": "FEvIR Linking Identifier"}, "value": "NCT03421379-secondaryOutcome-1", "system": "https://fevir.net/FLI", "assigner": {"display": "Computable Publishing LLC"}}}}, {"type": {"coding": [{"code": "secondary", "system": "http://hl7.org/fhir/research-study-objective-type", "display": "Secondary"}]}, "endpoint": {"type": "EvidenceVariable", "display": "Pharmacokinetics (PK): Change From Baseline in Area Under the Concentration Versus Time Curve From Zero to Time t (AUC [0-tLast]) of Glucagon Nasal Powder and Glucagon Hydrochloride IM (NCT03421379)", "identifier": {"type": {"text": "FEvIR Linking Identifier"}, "value": "NCT03421379-secondaryOutcome-2", "system": "https://fevir.net/FLI", "assigner": {"display": "Computable Publishing LLC"}}}}, {"type": {"coding": [{"code": "secondary", "system": "http://hl7.org/fhir/research-study-objective-type", "display": "Secondary"}]}, "endpoint": {"type": "EvidenceVariable", "display": "PK: Change From Baseline in Maximal Concentration (Cmax) of Glucagon Nasal Powder and Glucagon Hydrochloride IM (NCT03421379)", "identifier": {"type": {"text": "FEvIR Linking Identifier"}, "value": "NCT03421379-secondaryOutcome-3", "system": "https://fevir.net/FLI", "assigner": {"display": "Computable Publishing LLC"}}}}, {"type": {"coding": [{"code": "secondary", "system": "http://hl7.org/fhir/research-study-objective-type", "display": "Secondary"}]}, "endpoint": {"type": "EvidenceVariable", "display": "PK: Change From Baseline in Tmax of Glucagon Nasal Powder and Glucagon Hydrochloride IM (NCT03421379)", "identifier": {"type": {"text": "FEvIR Linking Identifier"}, "value": "NCT03421379-secondaryOutcome-4", "system": "https://fevir.net/FLI", "assigner": {"display": "Computable Publishing LLC"}}}}]}, {"type": {"coding": [{"code": "exploratory", "system": "http://hl7.org/fhir/research-study-objective-type", "display": "Exploratory"}]}, "description": "Explore the formation of anti-glucagon antibodies to glucagon", "outcomeMeasure": [{"endpoint": {"display": "Presence of anti-glucagon antibodies"}}]}, {"name": "To evaluate the recovery from clinical symptoms of hypoglycemia", "type": {"coding": [{"code": "exploratory", "system": "http://hl7.org/fhir/research-study-objective-type", "display": "Exploratory"}]}, "description": "Hypoglycemia symptoms questionnaire"}], "relatesTo": [{"type": "transforms", "targetAttachment": {"url": "https://clinicaltrials.gov/api/v2/studies/NCT03421379?format=json"}}, {"type": "transformed-with", "targetAttachment": {"url": "https://fevir.net/resources/Project/29885"}}, {"type": "supported-with", "targetAttachment": {"url": "https://www.clinicalstudydatarequest.com"}}, {"type": "documentation", "targetReference": {"type": "DocumentReference", "display": "I8R-JE-IGBJ(a) Clinical Pharmacology Protocol", "reference": "DocumentReference/367832"}}, {"type": "supported-with", "targetReference": {"type": "DocumentReference", "display": "I8R-JE-IGBJ Statistical Analysis Plan", "reference": "DocumentReference/367833"}}, {"type": "cites", "targetReference": {"type": "Citation", "display": "Defining and reporting hypoglycemia in diabetes: a report from the American Diabetes Association Workgroup on Hypoglycemia.", "reference": "Citation/267496"}}, {"type": "cites", "targetReference": {"type": "Citation", "display": "6. Glycemic Targets.", "reference": "Citation/267497"}}, {"type": "cites", "targetAttachment": {"url": "https://www.medicines.org.uk/emc/medicine/4258#DOCREVISION"}}, {"type": "cites", "targetMarkdown": "Glucagon G Novo for Injection [Package Insert]. Bagsvaerd, Denmark: Novo Nordisk; revised 2016. Available at: http://www.pmda.go.jp/PmdaSearch/iyakuDetail/ResultDataSetPDF/620023_7229402D1036_1_06. Accessed September 28, 2017."}, {"type": "cites", "targetMarkdown": "Glucagon G Novo for Injection [Interview Form]. Bagsvaerd, Denmark: Novo Nordisk; 2015. Available at: http://www.info.pmda.go.jp/go/interview/1/620023_7229402D1036_1_007_1F. Accessed September 28, 2017."}, {"type": "cites", "targetMarkdown": "GLUCAGON for Injection ITO [Package Insert]. Osaka, Japan: Kaigen Pharma Co., Ltd; 2016. Available at: http://www.pmda.go.jp/PmdaSearch/iyakuDetail/ResultDataSetPDF/130616_7229400D1088_1_11."}, {"type": "cites", "targetMarkdown": "GLUCAGON for Injection ITO [Interview Form]. Osaka, Japan: Kaigen Pharma Co., Ltd; 2016. Available at: http://www.info.pmda.go.jp/go/interview/1/130616_7229400D1088_1_G07_1F. Accessed September 28, 2017."}, {"type": "cites", "targetReference": {"type": "Citation", "display": "Emotional Distress in the Partners of Type 1 Diabetes Adults: Worries About Hypoglycemia and Other Key Concerns.", "reference": "Citation/267498"}}, {"type": "cites", "targetReference": {"type": "Citation", "display": "Intranasal Glucagon for Treatment of Insulin-Induced Hypoglycemia in Adults With Type 1 Diabetes: A Randomized Crossover Noninferiority Study.", "reference": "Citation/267499"}}, {"type": "cites", "targetReference": {"type": "Citation", "display": "A novel nasal powder formulation of glucagon: toxicology studies in animal models.", "reference": "Citation/267500"}}, {"type": "cites", "targetReference": {"type": "Citation", "display": "23589542 Hypoglycemia and diabetes: a report of a workgroup of the American Diabetes Association and the Endocrine Society.", "reference": "Citation/267501"}}], "classifier": [{"text": "IPDSharing: Yes"}, {"text": "IPDSharingDescription: Anonymized individual patient level data will be provided in a secure access environment upon approval of a research proposal and a signed data sharing agreement."}, {"text": "IPDSharingInfoType: Study Protocol"}, {"text": "IPDSharingInfoType: Statistical Analysis Plan (SAP)"}, {"text": "IPDSharingInfoType: Clinical Study Report (CSR)"}, {"text": "IPDSharingTimeFrame: Data are available 6 months after the primary publication and approval of the indication studied in the US and European Union (EU), whichever is later. Data will be indefinitely available for requesting."}, {"text": "IPDSharingAccessCriteria: A research proposal must be approved by an independent review panel and researchers must sign a data sharing agreement."}, {"text": "Has Results: True"}, {"text": "Oversight Classifier: oversightHasDmc False"}, {"text": "Oversight Classifier: isFdaRegulatedDrug True"}, {"text": "Oversight Classifier: isFdaRegulatedDevice False"}, {"text": "Oversight Classifier: isUsExport True"}, {"text": "AgreementPISponsorEmployee: False"}, {"text": "AgreementRestrictionType: GT60"}, {"text": "AgreementRestrictiveAgreement: True"}], "identifier": [{"type": {"text": "FEvIR Object Identifier", "coding": [{"system": "http://terminology.hl7.org/CodeSystem/v2-0203", "code": "ACSN", "display": "Accession ID"}]}, "value": "267245", "system": "https://fevir.net/FOI", "assigner": {"display": "Computable Publishing LLC"}}, {"use": "official", "value": "NCT03421379", "system": "https://clinicaltrials.gov"}, {"value": "16962", "assigner": {"display": "Eli Lilly and Company"}}, {"type": {"text": "Sponsor Protocol Identifier"}, "value": "I8R-JE-IGBJ", "assigner": {"display": "Eli Lilly and Company"}}, {"type": {"text": "Amendment Identifier"}, "value": "I8R-JE-IGBJ(a)"}], "description": "This ResearchStudy Resource was derived from data in the ClinicalTrials.gov record then modified for use to support an M11 Report.", "recruitment": {"extension": [{"url": "http://example.org/fhir/extension/population-description", "valueString": "Seventy-five patients may be enrolled in order to have at least 66 patients (at least 30 patients with T1DM and T2DM, respectively) complete the study. For purposes of this study, a completer is defined as a patient who completes both periods with evaluable primary outcome. If patients discontinue from the study before completion of both periods with evaluable primary outcome for any reason, the patient may be replaced to ensure 66 patients complete the study. The replacement patients will be assigned the same treatment sequence as the patients to be replaced and will complete that treatment sequence in its entirety. Replacement should not occur beyond 75 patients enrolled, if it is expected to have at least 66 patients complete the study. Eligibility of patients for the study will be based on the results of screening medical history, physical examination, vital signs, clinical laboratory tests, and ECG. The nature of any conditions present at the time of the physical examination and any preexisting conditions will be documented. Screening may occur up to 28 days prior to enrollment. Patients who are not enrolled within 28 days of screening may be subjected to an additional medical assessment and/or clinical measurements to confirm their eligibility. Prospective approval of protocol deviations to recruitment and enrollment criteria, also known as protocol waivers or exemptions, are not permitted."}, {"url": "http://example.org/fhir/extension/recruitment-contraception", "extension": [{"url": "details", "valueString": "Male patients must use an effective method of contraception for the duration of the study and for 28 days following the last study treatment. Female patients of childbearing potential must use one highly effective method of contraception (<1% failure rate; such as combined oral contraceptive pill, implanted contraceptives, or intrauterine device) or a combination of 2 effective methods of contraception (such as male or female condoms with spermicide [not approved in Japan], diaphragms with spermicide [not approved in Japan], or cervical sponges) during the study and for 28 days following the last study treatment. The patient may choose to use a double barrier method of contraception. Barrier protection methods without concomitant use of a spermicide are not a reliable or acceptable method. Thus, each barrier method must include use of a spermicide. It should be noted that the use of male and female condoms as a double barrier method is not considered acceptable due to the high failure rate when these methods are combined."}, {"url": "definitions", "valueString": "Not defined in protocol."}]}, {"url": "http://example.org/fhir/extension/recruitment-restrictions", "extension": [{"url": "lifestyle-summary", "valueString": "Throughout the study, patients may undergo medical assessments and review of compliance with requirements before continuing in the study."}, {"url": "dietary", "valueString": "In both treatment periods, patients will fast for at least 8 hours prior to beginning the hypoglycemia induction procedure. Patients should not be given any calorie-containing food/drink during insulin-induced hypoglycemia and within 90 minutes of glucagon administration unless there is a safety concern. The patients will receive a carbohydrate-rich meal after completion of all pharmacokinetic (PK) blood sample collections, at 240 minutes post glucagon dose. Patients will be given access to calorie-free water up to 240 minutes post study treatment. While resident in the CRU, patients should not consume any food or caloric drinks other than that provided by the CRU. When not resident in the CRU, patients will be encouraged to follow their normal diets"}, {"url": "substances", "valueString": "Patients should refrain from caffeine-containing food/beverages (eg, cola, chocolate drinks, tea, and coffee) from Day -1 to discharge from CRU in each period. Patient alcohol intake should not exceed 21 units per week (males up to age 65) and 14 units per week (males over 65 and females) during the study. Patients must not consume alcohol from Day -2 to discharge from CRU in each period. Smoking will not be permitted when resident in the CRU."}, {"url": "activity", "valueString": "Patients are encouraged to maintain their regular exercise habits for the duration of the study. However, patients should avoid strenuous exercise 48 hours prior to admission or study visit. From the beginning of hypoglycemia induction to 240 minutes post study treatment, patients should remain recumbent or sitting on the bed."}, {"url": "other", "valueString": "[Optional section not used here.]"}]}, {"url": "http://example.org/fhir/extension/screen-failure", "valueString": "Individuals who do not meet the criteria for participation in this study (screen failure) may not be re-screened."}], "eligibility": {"type": "Group", "display": "M11 IGBJ Protocol Example Eligibility Criteria", "reference": "Group/267506"}, "actualNumber": 75, "targetNumber": 20}, "studyDesign": [{"text": "Design Masking: None (Open Label)"}, {"coding": [{"code": "SEVCO:01003", "system": "http://hl7.org/fhir/study-design", "display": "randomized assignment"}]}, {"coding": [{"code": "SEVCO:01012", "system": "http://hl7.org/fhir/study-design", "display": "Crossover cohort design"}]}, {"coding": [{"code": "SEVCO:01001", "system": "http://hl7.org/fhir/study-design", "display": "interventional research"}]}], "resourceType": "ResearchStudy", "progressStatus": [{"state": {"coding": [{"code": "completed", "system": "http://hl7.org/fhir/research-study-status", "display": "Completed"}]}}, {"state": {"coding": [{"code": "overall-study", "system": "http://hl7.org/fhir/research-study-status", "display": "Overall Study"}]}, "actual": true, "period": {"end": "2018-08-20", "start": "2018-02-21"}}, {"state": {"text": "Sponsor Approval", "coding": [{"code": "approved", "system": "http://hl7.org/fhir/research-study-status", "display": "Approved"}]}, "actual": true, "period": {"start": "2017-10-26"}}, {"state": {"text": "Version Date"}, "actual": true, "period": {"start": "2017-12-05"}}], "associatedParty": [{"name": "Eli Lilly and Company", "role": {"coding": [{"code": "sponsor", "system": "http://hl7.org/fhir/research-study-party-role", "display": "Sponsor"}]}}, {"name": "Eli Lilly and Company, Eli Lilly Japan K.K", "role": {"coding": [{"code": "lead-sponsor", "system": "http://hl7.org/fhir/research-study-party-role", "display": "Lead sponsor"}]}}, {"name": "Call 1-877-CTLILLY (1-877-285-4559) or 1-317-615-4559 Mon - Fri 9 AM - 5 PM Eastern time (UTC/GMT - 5 hours, EST)", "role": {"coding": [{"code": "study-chair", "system": "http://hl7.org/fhir/research-study-party-role", "display": "Study chair"}]}, "party": {"display": "Eli Lilly and Company"}}, {"name": "Medical Expert details on file at Eli Lilly and Company", "role": {"text": "Medical Expert", "coding": [{"code": "general-contact", "system": "http://hl7.org/fhir/research-study-party-role", "display": "General contact"}]}}], "comparisonGroup": [{"eligibility": {"type": "Group", "display": "Glucagon Nasal Powder (Experimental)", "reference": "Group/370701"}}, {"eligibility": {"type": "Group", "display": "Glucagon Hydrochloride Solution (Active Comparator)", "reference": "Group/370702"}}], "descriptionSummary": "The purpose of this study is to determine the efficacy and safety of nasal glucagon compared to intramuscular (IM) glucagon for treatment of insulin-induced hypoglycemia in Japanese participants with diabetes mellitus.", "primaryPurposeType": {"coding": [{"code": "treatment", "system": "http://terminology.hl7.org/CodeSystem/research-study-prim-purp-type", "display": "Treatment"}]}}