{"resourceType": "ResearchStudy", "id": "367879", "meta": {"profile": ["http://hl7.org/fhir/uv/ebm/StructureDefinition/study-registry-record"], "versionId": "28", "lastUpdated": "2025-08-15T10:32:26.138Z"}, "contained": [{"resourceType": "EvidenceVariable", "id": "NCT03640312-drug------quartet-ldqt", "meta": {"profile": ["http://hl7.org/fhir/uv/ebm/StructureDefinition/variable-definition"]}, "name": "NCT03640312_drug______quartet_ldqt", "title": "QUARTET LDQT", "status": "active", "description": "Ultra-low-dose combination therapy comprising four different blood pressure lowering drugs at 1/4 dosages. Taken once daily for 12 weeks.", "handling": "boolean", "classifier": [{"text": "Intervention Type: DRUG"}]}, {"resourceType": "EvidenceVariable", "id": "NCT03640312-drug------candesartan", "meta": {"profile": ["http://hl7.org/fhir/uv/ebm/StructureDefinition/variable-definition"]}, "name": "NCT03640312_drug______candesartan", "title": "Candesartan", "status": "active", "description": "Standard monotherapy of 8mg candesartan. Taken once daily for 12 weeks.", "handling": "boolean", "classifier": [{"text": "Intervention Type: DRUG"}]}, {"resourceType": "Group", "id": "NCT03640312-comparison-group-0", "extension": [{"url": "http://hl7.org/fhir/StructureDefinition/artifact-author", "valueContactDetail": {"name": "Computable Publishing\u00ae: [System]-to-FEvIR Converter"}}], "identifier": [{"type": {"text": "FEvIR Linking Identifier"}, "system": "https://fevir.net/FLI", "value": "NCT03640312-comparison-group-0", "assigner": {"display": "Computable Publishing LLC"}}], "title": "NCT03640312 Comparison Group: QUARTET LDQT", "status": "active", "description": "Patients randomized to the intervention arm will take a once daily ultra-low-dose quadruple combination therapy (QUARTET LDQT). The LDQT is an overencapsulated combination pill comprising four types of blood pressure lowering medications each at \u00bc standard doses. QUARTET includes candesartan 2mg, amlodipine besylate 1.25mg, indapamide 0.625mg, and bisoprolol 2.5mg. The individual components are currently approved and marketed within the United States.", "membership": "conceptual", "code": {"text": "Experimental"}, "characteristic": [{"code": {"text": "Exposed to"}, "valueReference": {"reference": "#NCT03640312-drug------quartet-ldqt", "type": "EvidenceVariable", "display": "Drug: QUARTET LDQT"}, "exclude": false}]}, {"resourceType": "Group", "id": "NCT03640312-comparison-group-1", "extension": [{"url": "http://hl7.org/fhir/StructureDefinition/artifact-author", "valueContactDetail": {"name": "Computable Publishing\u00ae: [System]-to-FEvIR Converter"}}], "identifier": [{"type": {"text": "FEvIR Linking Identifier"}, "system": "https://fevir.net/FLI", "value": "NCT03640312-comparison-group-1", "assigner": {"display": "Computable Publishing LLC"}}], "title": "NCT03640312 Comparison Group: Candesartan", "status": "active", "description": "Patients randomized to the comparison arm will take a once daily 8mg candesartan.", "membership": "conceptual", "code": {"text": "Active Comparator"}, "characteristic": [{"code": {"text": "Exposed to"}, "valueReference": {"reference": "#NCT03640312-drug------candesartan", "type": "EvidenceVariable", "display": "Drug: Candesartan"}, "exclude": false}]}, {"resourceType": "PractitionerRole", "id": "NCT03640312-ResponsibleParty-0", "practitioner": {"display": "Mark Huffman"}, "organization": {"display": "Washington University School of Medicine"}, "code": [{"text": "Professor of Medicine and Global Health Center Co-Director"}]}, {"resourceType": "Location", "id": "NCT03640312-Location-0", "name": "ACCESS Martin T. Russo Family Health Center", "address": {"city": "Bloomingdale", "state": "Illinois", "postalCode": "60108", "country": "United States"}, "position": {"longitude": -88.0809, "latitude": 41.95753}}, {"resourceType": "Location", "id": "NCT03640312-Location-1", "name": "Ashland Family Health Center", "address": {"city": "Chicago", "state": "Illinois", "postalCode": "60609", "country": "United States"}, "position": {"longitude": -87.65005, "latitude": 41.85003}}], "extension": [{"extension": [{"url": "activity", "valueCodeableConcept": {"coding": [{"system": "http://hl7.org/fhir/research-study-registration-activity", "code": "registration-submission", "display": "Registration submission"}]}}, {"url": "actual", "valueBoolean": true}, {"url": "period", "valuePeriod": {"start": "2018-08-15"}}], "url": "http://hl7.org/fhir/StructureDefinition/researchStudy-studyRegistration"}, {"extension": [{"url": "activity", "valueCodeableConcept": {"coding": [{"system": "http://hl7.org/fhir/research-study-registration-activity", "code": "results-submission", "display": "Results submission"}]}}, {"url": "actual", "valueBoolean": true}, {"url": "period", "valuePeriod": {"start": "2023-05-31"}}], "url": "http://hl7.org/fhir/StructureDefinition/researchStudy-studyRegistration"}, {"extension": [{"url": "activity", "valueCodeableConcept": {"coding": [{"system": "http://hl7.org/fhir/research-study-registration-activity", "code": "registration-submission-qc", "display": "Registration submission Quality Check"}]}}, {"url": "actual", "valueBoolean": true}, {"url": "period", "valuePeriod": {"start": "2018-08-17"}}], "url": "http://hl7.org/fhir/StructureDefinition/researchStudy-studyRegistration"}, {"extension": [{"url": "activity", "valueCodeableConcept": {"coding": [{"system": "http://hl7.org/fhir/research-study-registration-activity", "code": "results-submission-qc", "display": "Results submission Quality Check"}]}}, {"url": "actual", "valueBoolean": true}, {"url": "period", "valuePeriod": {"start": "2023-09-20"}}], "url": "http://hl7.org/fhir/StructureDefinition/researchStudy-studyRegistration"}, {"extension": [{"url": "activity", "valueCodeableConcept": {"coding": [{"system": "http://hl7.org/fhir/research-study-registration-activity", "code": "record-verification", "display": "Record Verification"}]}}, {"url": "actual", "valueBoolean": true}, {"url": "period", "valuePeriod": {"end": "2024-12"}}], "url": "http://hl7.org/fhir/StructureDefinition/researchStudy-studyRegistration"}, {"extension": [{"url": "activity", "valueCodeableConcept": {"coding": [{"system": "http://hl7.org/fhir/research-study-registration-activity", "code": "update-submission", "display": "Update submission"}]}}, {"url": "actual", "valueBoolean": true}, {"url": "period", "valuePeriod": {"end": "2024-12-16"}}], "url": "http://hl7.org/fhir/StructureDefinition/researchStudy-studyRegistration"}, {"extension": [{"url": "activity", "valueCodeableConcept": {"coding": [{"system": "http://hl7.org/fhir/research-study-registration-activity", "code": "registration-posting", "display": "Registration posting"}]}}, {"url": "actual", "valueBoolean": true}, {"url": "period", "valuePeriod": {"start": "2018-08-21"}}], "url": "http://hl7.org/fhir/StructureDefinition/researchStudy-studyRegistration"}, {"extension": [{"url": "activity", "valueCodeableConcept": {"coding": [{"system": "http://hl7.org/fhir/research-study-registration-activity", "code": "results-posting", "display": "Results posting"}]}}, {"url": "actual", "valueBoolean": true}, {"url": "period", "valuePeriod": {"start": "2023-09-22"}}], "url": "http://hl7.org/fhir/StructureDefinition/researchStudy-studyRegistration"}, {"extension": [{"url": "activity", "valueCodeableConcept": {"coding": [{"system": "http://hl7.org/fhir/research-study-registration-activity", "code": "primary-outcome-data-collection", "display": "Primary outcome data collection"}]}}, {"url": "actual", "valueBoolean": true}, {"url": "period", "valuePeriod": {"end": "2022-05-31"}}], "url": "http://hl7.org/fhir/StructureDefinition/researchStudy-studyRegistration"}, {"extension": [{"url": "activity", "valueCodeableConcept": {"coding": [{"system": "http://hl7.org/fhir/research-study-registration-activity", "code": "update-posting", "display": "Update posting"}]}}, {"url": "actual", "valueBoolean": true}, {"url": "period", "valuePeriod": {"end": "2025-01-03"}}], "url": "http://hl7.org/fhir/StructureDefinition/researchStudy-studyRegistration"}, {"url": "http://hl7.org/fhir/StructureDefinition/artifact-author", "valueContactDetail": {"name": "Computable Publishing\u00ae: ClinicalTrials.gov-to-FEvIR Converter"}}], "identifier": [{"type": {"text": "FEvIR Object Identifier", "coding": [{"system": "http://terminology.hl7.org/CodeSystem/v2-0203", "code": "ACSN", "display": "Accession ID"}]}, "system": "https://fevir.net/FOI", "value": "367879", "assigner": {"display": "Computable Publishing LLC"}}, {"use": "official", "system": "https://clinicaltrials.gov", "value": "NCT03640312"}, {"value": "202203097-STU00205834", "assigner": {"display": "Washington University School of Medicine"}}, {"type": {"text": "FEvIR Linking Identifier"}, "system": "https://fevir.net/FLI", "value": "NCT03640312 FHIR Transform", "assigner": {"display": "Computable Publishing LLC"}}], "name": "NCT03640312_FHIR_Transform", "title": "Efficacy and Safety of a Quadruple Ultra-low-dose Treatment for Hypertension", "label": [{"type": {"coding": [{"system": "http://hl7.org/fhir/title-type", "code": "official", "display": "Official title"}]}, "value": "A Double Blind Randomized Controlled Trial to Assess the Efficacy and Safety of a Quadruple Ultra-low-dose Treatment for Hypertension (QUARTET USA)"}, {"type": {"coding": [{"system": "http://hl7.org/fhir/title-type", "code": "acronym", "display": "Acronym"}]}, "value": "QUARTET USA"}], "relatesTo": [{"type": "transforms", "targetUri": "https://clinicaltrials.gov/api/v2/studies/NCT03640312?format=json"}, {"type": "transformed-with", "targetAttachment": {"url": "https://fevir.net/resources/Project/29885", "title": "Computable Publishing\u00ae: ClinicalTrials.gov-to-FEvIR Converter"}}, {"type": "cites", "targetReference": {"reference": "ERROR: Needs Value For Citation For PMID 36116516", "type": "Citation", "identifier": {"system": "https://pubmed.ncbi.nlm.nih.gov", "value": "36116516"}, "display": "Baldridge AS, Huffman MD, Lazar D, Abbas H, Flowers FM, Quintana A, Jackson A, Khan SS, Chopra A, Vu M, Tripathi P, Jacobson T, Sanuade OA, Kandula NR, Persell SD, Paparello JJ, Rosul LL, Mejia J, Lloyd-Jones DM, Chow CK, Ciolino JD. Efficacy and safety of a quadruple ultra-low-dose treatment for hypertension (QUARTET USA): Rationale and design for a randomized controlled trial. Am Heart J. 2022 Dec;254:183-193. doi: 10.1016/j.ahj.2022.09.004. Epub 2022 Sep 15."}}, {"type": "documentation", "targetAttachment": {"contentType": "application/pdf", "url": "https://cdn.clinicaltrials.gov/large-docs/12/NCT03640312/Prot_001.pdf", "size": "292795", "title": "ProtStudy Protocol", "creation": "2022-04-20"}}, {"type": "documentation", "targetAttachment": {"contentType": "application/pdf", "url": "https://cdn.clinicaltrials.gov/large-docs/12/NCT03640312/SAP_002.pdf", "size": "300936", "title": "SAPStatistical Analysis Plan", "creation": "2022-02-09"}}, {"type": "documentation", "targetAttachment": {"contentType": "application/pdf", "url": "https://cdn.clinicaltrials.gov/large-docs/12/NCT03640312/ICF_000.pdf", "size": "311884", "title": "ICFInformed Consent Form", "creation": "2020-08-13"}}], "status": "active", "primaryPurposeType": {"coding": [{"system": "http://terminology.hl7.org/CodeSystem/research-study-prim-purp-type", "code": "treatment", "display": "Treatment"}]}, "phase": {"coding": [{"system": "http://terminology.hl7.org/CodeSystem/research-study-phase", "code": "phase-2", "display": "Phase 2"}]}, "studyDesign": [{"text": "Design Masking: Quadruple"}, {"coding": [{"system": "https://fevir.net/sevco", "code": "SEVCO:01060", "display": "Blinding of study participants"}]}, {"coding": [{"system": "https://fevir.net/sevco", "code": "SEVCO:01061", "display": "Blinding of intervention providers"}]}, {"coding": [{"system": "https://fevir.net/sevco", "code": "SEVCO:01063", "display": "Blinding of data analysts"}]}, {"coding": [{"system": "https://fevir.net/sevco", "code": "SEVCO:01062", "display": "Blinding of outcome assessors"}]}, {"coding": [{"system": "https://fevir.net/sevco", "code": "SEVCO:01003", "display": "randomized assignment"}]}, {"coding": [{"system": "https://fevir.net/sevco", "code": "SEVCO:01011", "display": "Parallel cohort design"}]}, {"coding": [{"system": "https://fevir.net/sevco", "code": "SEVCO:01001", "display": "interventional research"}]}], "condition": [{"text": "Hypertension"}], "keyword": [{"text": "Hypertension"}, {"text": "Blood Pressure"}], "descriptionSummary": "To investigate, in a double-blind randomized controlled trial, whether initiating treatment with ultra-low-dose quadruple-combination therapy (\"LDQT\") will lower office blood pressure more effectively, and with fewer side effects, compared to initiating standard dose monotherapy as per current guidelines in patients with hypertension.\n\nPrimary hypothesis: A combination pill comprising four types of blood pressure lowering medications, each at one-quarter standard doses, will lower office blood pressure more effectively than initiating patients with standard dose monotherapy as per contemporary clinical practice guideline recommendations.", "description": "This trial will investigate whether initiating treatment with ultra-low-dose quadruple-combination therapy (LDQT; including candesartan 2 mg, amlodipine 1.25 mg, indapamide 0.625 mg, and bisoprolol 2.5 mg) will lower automated office blood pressure and 24-hour ambulatory blood pressure at 12 weeks more effectively, and with no increase in side effects, compared to initiating standard dose monotherapy (candesartan 8 mg) in adults with raised blood pressure (SBP\\>130 mmHg or DBP\\>80 mmHg) and without cardiovascular disease. Our preliminary data from a short-term (4-week) crossover trial of 18 participants suggest that LDQT lowers office blood pressure by 22/13 mmHg on average compared with placebo with no difference in serious adverse events. Effects on 24-hour ambulatory blood pressure were similar.\n\nThe investigators will perform this phase II, single site, randomized controlled trial in a network of federally qualified health centers in Chicago because this population bears a disproportionate burden of blood pressure related diseases, and the investigators have previously successfully conducted clinical studies in this population.\n\nWhile the investigators hypothesize this intervention will be easily implemented and efficacious for all patients and clinicians, the investigators will explore variation in treatment effect by potential moderating variables, including age, sex, race/ethnicity, and health literacy level. Beyond examining efficacy, the investigators also plan to assess feasibility of implementing this intervention in a clinical setting by simultaneously evaluating implementation outcomes of acceptability, preferences, and lessons of LDQT among patients and clinicians.", "site": [{"reference": "#NCT03640312-Location-0", "type": "Location"}, {"reference": "#NCT03640312-Location-1", "type": "Location"}], "classifier": [{"text": "IPDSharing: Yes"}, {"text": "IPDSharingDescription: Individual participant data will be shared through NHLBI BioLINCC."}, {"text": "IPDSharingInfoType: Study Protocol"}, {"text": "IPDSharingInfoType: Statistical Analysis Plan (SAP)"}, {"text": "IPDSharingInfoType: Informed Consent Form (ICF)"}, {"text": "IPDSharingInfoType: Clinical Study Report (CSR)"}, {"text": "IPDSharingInfoType: Analytic Code"}, {"text": "IPDSharingTimeFrame: Data will be available within 1 year of study conclusion."}, {"text": "IPDSharingAccessCriteria: Access to study data will be managed through NHLBI BioLINCC"}, {"text": "Has Results: True"}, {"text": "Oversight Classifier: oversightHasDmc True"}, {"text": "Oversight Classifier: isFdaRegulatedDrug True"}, {"text": "Oversight Classifier: isFdaRegulatedDevice False"}, {"text": "AgreementPISponsorEmployee: False"}, {"text": "AgreementRestrictiveAgreement: False"}], "associatedParty": [{"name": "Washington University School of Medicine", "role": {"coding": [{"system": "http://hl7.org/fhir/research-study-party-role", "code": "sponsor", "display": "Sponsor"}]}, "classifier": [{"text": "OTHER"}]}, {"name": "Mark Huffman", "role": {"coding": [{"system": "http://hl7.org/fhir/research-study-party-role", "code": "primary-investigator", "display": "Principal investigator"}]}, "party": {"reference": "#NCT03640312-ResponsibleParty-0", "type": "PractitionerRole"}}, {"name": "Washington University School of Medicine", "role": {"coding": [{"system": "http://hl7.org/fhir/research-study-party-role", "code": "lead-sponsor", "display": "Lead sponsor"}]}, "classifier": [{"text": "OTHER"}]}, {"name": "ACCESS Community Health Network", "role": {"coding": [{"system": "http://hl7.org/fhir/research-study-party-role", "code": "collaborator", "display": "Collaborator"}]}, "classifier": [{"text": "OTHER"}]}, {"name": "University of Sydney", "role": {"coding": [{"system": "http://hl7.org/fhir/research-study-party-role", "code": "collaborator", "display": "Collaborator"}]}, "classifier": [{"text": "OTHER"}]}, {"name": "Mark D Huffman, PhD, MD", "role": {"coding": [{"system": "http://hl7.org/fhir/research-study-party-role", "code": "primary-investigator", "display": "Principal investigator"}]}, "party": {"display": "Northwestern University Feinberg School of Medicine"}}, {"name": "Jody D Ciolino, PhD", "role": {"coding": [{"system": "http://hl7.org/fhir/research-study-party-role", "code": "primary-investigator", "display": "Principal investigator"}]}, "party": {"display": "Overall Study Officials:"}}], "progressStatus": [{"state": {"coding": [{"system": "http://hl7.org/fhir/research-study-status", "code": "completed", "display": "Completed"}]}}, {"state": {"coding": [{"system": "http://hl7.org/fhir/research-study-status", "code": "overall-study", "display": "Overall study"}]}, "actual": true, "period": {"start": "2019-08-30", "end": "2024-07-31"}}], "recruitment": {"actualNumber": 62, "eligibility": {"type": "Group", "identifier": {"type": {"text": "FEvIR Linking Identifier"}, "system": "https://fevir.net/FLI", "value": "NCT03640312 Eligibility Criteria", "assigner": {"display": "Computable Publishing LLC"}}, "display": "NCT03640312 Eligibility Criteria", "reference": "Group/367881"}}, "comparisonGroup": [{"eligibility": {"reference": "#NCT03640312-comparison-group-0", "type": "Group", "display": "QUARTET LDQT: Patients randomized to the intervention arm will take a once daily ultra-low-dose quadruple combination therapy (QUARTET LDQT). The LDQT is an overencapsulated combination pill comprising four types of blood pressure lowering medications each at \u00bc standard doses. QUARTET includes candesartan 2mg, amlodipine besylate 1.25mg, indapamide 0.625mg, and bisoprolol 2.5mg. The individual components are currently approved and marketed within the United States."}}, {"eligibility": {"reference": "#NCT03640312-comparison-group-1", "type": "Group", "display": "Candesartan: Patients randomized to the comparison arm will take a once daily 8mg candesartan."}}], "objective": [{"type": {"coding": [{"system": "http://terminology.hl7.org/CodeSystem/research-study-objective-type", "code": "primary", "display": "Primary"}]}, "outcomeMeasure": [{"name": "Change in Mean Systolic Blood Pressure", "type": {"coding": [{"system": "http://terminology.hl7.org/CodeSystem/research-study-objective-type", "code": "primary", "display": "Primary"}]}, "description": "Mean change (from baseline) in automated office systolic blood pressure adjusted for baseline values.", "endpoint": {"type": "EvidenceVariable", "identifier": {"type": {"text": "FEvIR Linking Identifier"}, "system": "https://fevir.net/FLI", "value": "NCT03640312-primaryOutcome-0", "assigner": {"display": "Computable Publishing LLC"}}, "reference": "EvidenceVariable/367882"}}]}, {"type": {"coding": [{"system": "http://terminology.hl7.org/CodeSystem/research-study-objective-type", "code": "secondary", "display": "Secondary"}]}, "outcomeMeasure": [{"name": "Mean Systolic Blood Pressure", "type": {"coding": [{"system": "http://terminology.hl7.org/CodeSystem/research-study-objective-type", "code": "secondary", "display": "Secondary"}]}, "description": "Mean automated office systolic blood pressure adjusted for baseline values.", "endpoint": {"type": "EvidenceVariable", "identifier": {"type": {"text": "FEvIR Linking Identifier"}, "system": "https://fevir.net/FLI", "value": "NCT03640312-secondaryOutcome-0", "assigner": {"display": "Computable Publishing LLC"}}, "reference": "EvidenceVariable/367883"}}, {"name": "Change in Mean Diastolic Blood Pressure", "type": {"coding": [{"system": "http://terminology.hl7.org/CodeSystem/research-study-objective-type", "code": "secondary", "display": "Secondary"}]}, "description": "Mean change (from baseline) in automated office diastolic blood pressure adjusted for baseline values.", "endpoint": {"type": "EvidenceVariable", "identifier": {"type": {"text": "FEvIR Linking Identifier"}, "system": "https://fevir.net/FLI", "value": "NCT03640312-secondaryOutcome-1", "assigner": {"display": "Computable Publishing LLC"}}, "reference": "EvidenceVariable/367884"}}, {"name": "Mean Diastolic Blood Pressure", "type": {"coding": [{"system": "http://terminology.hl7.org/CodeSystem/research-study-objective-type", "code": "secondary", "display": "Secondary"}]}, "description": "Mean automated office diastolic blood pressure adjusted for baseline values.", "endpoint": {"type": "EvidenceVariable", "identifier": {"type": {"text": "FEvIR Linking Identifier"}, "system": "https://fevir.net/FLI", "value": "NCT03640312-secondaryOutcome-2", "assigner": {"display": "Computable Publishing LLC"}}, "reference": "EvidenceVariable/367885"}}, {"name": "Proportion of Patients With Hypertension Control", "type": {"coding": [{"system": "http://terminology.hl7.org/CodeSystem/research-study-objective-type", "code": "secondary", "display": "Secondary"}]}, "description": "Proportion of patients with hypertension control (percent with SBP \\< 130 mmHg and DBP \\<80 mmHg).", "endpoint": {"type": "EvidenceVariable", "identifier": {"type": {"text": "FEvIR Linking Identifier"}, "system": "https://fevir.net/FLI", "value": "NCT03640312-secondaryOutcome-3", "assigner": {"display": "Computable Publishing LLC"}}, "reference": "EvidenceVariable/367886"}}, {"name": "Number of Patients Requiring Step up Treatment", "type": {"coding": [{"system": "http://terminology.hl7.org/CodeSystem/research-study-objective-type", "code": "secondary", "display": "Secondary"}]}, "description": "Number of patients requiring step-up treatment.", "endpoint": {"type": "EvidenceVariable", "identifier": {"type": {"text": "FEvIR Linking Identifier"}, "system": "https://fevir.net/FLI", "value": "NCT03640312-secondaryOutcome-4", "assigner": {"display": "Computable Publishing LLC"}}, "reference": "EvidenceVariable/367887"}}, {"name": "Proportion of Patients With Adverse Event Free Hypertension Control", "type": {"coding": [{"system": "http://terminology.hl7.org/CodeSystem/research-study-objective-type", "code": "secondary", "display": "Secondary"}]}, "description": "Proportion of patients with adverse event free hypertension control (percent with SBP \\< 130 mmHg and DBP \\<80 mmHg).", "endpoint": {"type": "EvidenceVariable", "identifier": {"type": {"text": "FEvIR Linking Identifier"}, "system": "https://fevir.net/FLI", "value": "NCT03640312-secondaryOutcome-5", "assigner": {"display": "Computable Publishing LLC"}}, "reference": "EvidenceVariable/367888"}}, {"name": "Medication Adherence", "type": {"coding": [{"system": "http://terminology.hl7.org/CodeSystem/research-study-objective-type", "code": "secondary", "display": "Secondary"}]}, "description": "Medication adherence defined by objective pill counts", "endpoint": {"type": "EvidenceVariable", "identifier": {"type": {"text": "FEvIR Linking Identifier"}, "system": "https://fevir.net/FLI", "value": "NCT03640312-secondaryOutcome-6", "assigner": {"display": "Computable Publishing LLC"}}, "reference": "EvidenceVariable/367889"}}, {"name": "Health-related Quality of Life", "type": {"coding": [{"system": "http://terminology.hl7.org/CodeSystem/research-study-objective-type", "code": "secondary", "display": "Secondary"}]}, "description": "Mean change (from baseline) in health-related quality of life using Patient-Reported Outcomes Measurement Information System (PROMIS) Global Health instrument. PROMIS Global Health is a gauge of general health-care related quality of life. Possible PROMIS Global Physical Health and Global Mental Health scores range from 0-20, with 20 indicating best possible state of health. Raw scores are converted to T-scores to compare to a standardized population. A PROMIS T-score of 50 represents the mean of the population (SD = 10). Higher values here also indicate better health. A positive change in T score, as reported in this outcome measure, would represent an improvement in Global Physical Health or Global Mental Health at 12 weeks compared to baseline.", "endpoint": {"type": "EvidenceVariable", "identifier": {"type": {"text": "FEvIR Linking Identifier"}, "system": "https://fevir.net/FLI", "value": "NCT03640312-secondaryOutcome-7", "assigner": {"display": "Computable Publishing LLC"}}, "reference": "EvidenceVariable/367890"}}, {"name": "Change in Mean Systolic Blood Pressure", "type": {"coding": [{"system": "http://terminology.hl7.org/CodeSystem/research-study-objective-type", "code": "secondary", "display": "Secondary"}]}, "description": "Mean change (from baseline) in automated office systolic blood pressure adjusted for baseline values.", "endpoint": {"type": "EvidenceVariable", "identifier": {"type": {"text": "FEvIR Linking Identifier"}, "system": "https://fevir.net/FLI", "value": "NCT03640312-secondaryOutcome-8", "assigner": {"display": "Computable Publishing LLC"}}, "reference": "EvidenceVariable/367891"}}]}, {"type": {"coding": [{"system": "http://terminology.hl7.org/CodeSystem/research-study-objective-type", "code": "exploratory", "display": "Exploratory"}]}, "outcomeMeasure": [{"name": "Percentage of Participants With Serious Adverse Events (SAEs)", "type": {"coding": [{"system": "http://terminology.hl7.org/CodeSystem/research-study-objective-type", "code": "exploratory", "display": "Exploratory"}]}, "description": "Percentage of participants with any Serious Adverse Events (SAE) according to Good Clinical Practice definition: adverse events that result in death, are life threatening, require hospitalization or prolong existing hospitalization, result in persistent disability, result in congenital anomaly or birth defect, or unimportant medical event that requires intervention to prevent any of the above.", "endpoint": {"type": "EvidenceVariable", "identifier": {"type": {"text": "FEvIR Linking Identifier"}, "system": "https://fevir.net/FLI", "value": "NCT03640312-otherOutcome-0", "assigner": {"display": "Computable Publishing LLC"}}, "reference": "EvidenceVariable/367896"}}, {"name": "Percentage of Participants With Potentially Related Adverse Events", "type": {"coding": [{"system": "http://terminology.hl7.org/CodeSystem/research-study-objective-type", "code": "exploratory", "display": "Exploratory"}]}, "description": "Percentage of participants with occurrence of any potentially related adverse event (pre-specified as in study procedures). Defined as: At least possibly related to study drug.", "endpoint": {"type": "EvidenceVariable", "identifier": {"type": {"text": "FEvIR Linking Identifier"}, "system": "https://fevir.net/FLI", "value": "NCT03640312-otherOutcome-1", "assigner": {"display": "Computable Publishing LLC"}}, "reference": "EvidenceVariable/367897"}}, {"name": "Rate of Adverse Events of Special Interest", "type": {"coding": [{"system": "http://terminology.hl7.org/CodeSystem/research-study-objective-type", "code": "exploratory", "display": "Exploratory"}]}, "description": "Rate of pre-specified adverse events that are known side effects of active ingredients at the participant level.", "endpoint": {"type": "EvidenceVariable", "identifier": {"type": {"text": "FEvIR Linking Identifier"}, "system": "https://fevir.net/FLI", "value": "NCT03640312-otherOutcome-2", "assigner": {"display": "Computable Publishing LLC"}}, "reference": "EvidenceVariable/367898"}}, {"name": "Mean Change in Serum Potassium", "type": {"coding": [{"system": "http://terminology.hl7.org/CodeSystem/research-study-objective-type", "code": "exploratory", "display": "Exploratory"}]}, "description": "Mean change (from baseline) in continuous serum potassium.", "endpoint": {"type": "EvidenceVariable", "identifier": {"type": {"text": "FEvIR Linking Identifier"}, "system": "https://fevir.net/FLI", "value": "NCT03640312-otherOutcome-3", "assigner": {"display": "Computable Publishing LLC"}}, "reference": "EvidenceVariable/367899"}}, {"name": "Mean Change in Serum Sodium", "type": {"coding": [{"system": "http://terminology.hl7.org/CodeSystem/research-study-objective-type", "code": "exploratory", "display": "Exploratory"}]}, "description": "Mean change (from baseline) in continuous serum sodium.", "endpoint": {"type": "EvidenceVariable", "identifier": {"type": {"text": "FEvIR Linking Identifier"}, "system": "https://fevir.net/FLI", "value": "NCT03640312-otherOutcome-4", "assigner": {"display": "Computable Publishing LLC"}}, "reference": "EvidenceVariable/367900"}}, {"name": "Mean Change in Blood Urea Nitrogen", "type": {"coding": [{"system": "http://terminology.hl7.org/CodeSystem/research-study-objective-type", "code": "exploratory", "display": "Exploratory"}]}, "description": "Mean change (from baseline) in continuous blood urea nitrogen.", "endpoint": {"type": "EvidenceVariable", "identifier": {"type": {"text": "FEvIR Linking Identifier"}, "system": "https://fevir.net/FLI", "value": "NCT03640312-otherOutcome-5", "assigner": {"display": "Computable Publishing LLC"}}, "reference": "EvidenceVariable/367901"}}, {"name": "Mean Change in Serum Creatinine", "type": {"coding": [{"system": "http://terminology.hl7.org/CodeSystem/research-study-objective-type", "code": "exploratory", "display": "Exploratory"}]}, "description": "Mean change in continuous serum creatinine.", "endpoint": {"type": "EvidenceVariable", "identifier": {"type": {"text": "FEvIR Linking Identifier"}, "system": "https://fevir.net/FLI", "value": "NCT03640312-otherOutcome-6", "assigner": {"display": "Computable Publishing LLC"}}, "reference": "EvidenceVariable/367902"}}]}], "result": [{"type": "Composition", "display": "Results Section for NCT03640312", "identifier": {"type": {"text": "FEvIR Linking Identifier"}, "system": "https://fevir.net/FLI", "value": "NCT03640312 Results Report", "assigner": {"display": "Computable Publishing LLC"}}, "reference": "Composition/367880"}], "url": "https://fevir.net/resources/ResearchStudy/367879", "citeAs": "Efficacy and Safety of a Quadruple Ultra-low-dose Treatment for Hypertension [Database Entry: FHIR ResearchStudy Resource]. Contributors: Computable Publishing\u00ae: ClinicalTrials.gov-to-FEvIR Converter [Authors/Creators]. In: Fast Evidence Interoperability Resources (FEvIR) Platform, FOI 367879. Revised 2025-08-15. Available at: https://fevir.net/resources/ResearchStudy/367879. Computable resource at: https://fevir.net/resources/ResearchStudy/367879#json."}