{"resourceType": "ResearchStudy", "meta": {"profile": ["http://hl7.org/fhir/uv/ebm/StructureDefinition/study-registry-record"], "versionId": "9", "lastUpdated": "2025-07-17T12:25:39.539Z"}, "contained": [{"resourceType": "Organization", "id": "organization-554686", "name": "Assistance Publique Hopitaux De Paris", "description": "Hospital/Clinic/Other health care facility"}, {"resourceType": "PractitionerRole", "id": "contact-190857", "organization": {"reference": "#organization-554686", "type": "Organization", "display": "Assistance Publique Hopitaux De Paris"}, "contact": [{"name": [{"text": "Dr El Karoui Khalil"}], "telecom": [{"system": "email", "value": "khalil.el-karoui@aphp.fr"}, {"system": "phone", "value": "+33156016317"}]}], "display": "Dr El Karoui Khalil khalil.el-karoui@aphp.fr"}, {"resourceType": "PractitionerRole", "id": "contact-190858", "organization": {"reference": "#organization-554686", "type": "Organization", "display": "Assistance Publique Hopitaux De Paris"}, "contact": [{"name": [{"text": "Dr El Karoui Khalil"}], "telecom": [{"system": "email", "value": "khalil.el-karoui@aphp.fr"}, {"system": "phone", "value": "+33156016317"}]}], "display": "Dr El Karoui Khalil khalil.el-karoui@aphp.fr"}], "extension": [{"url": "http://hl7.org/fhir/uv/ebm/StructureDefinition/research-study-is-low-intervention-trial", "valueBoolean": false}, {"url": "http://hl7.org/fhir/StructureDefinition/artifact-author", "valueContactDetail": {"name": "Computable Publishing\u00ae: CTIS-to-FEvIR Converter"}}, {"url": "http://hl7.org/fhir/uv/ebm/StructureDefinition/artifact-publication-status", "valueCodeableConcept": {"coding": [{"system": "http://terminology.hl7.org/CodeSystem/cited-artifact-status-type", "code": "active", "display": "Active"}]}}], "identifier": [{"type": {"text": "FEvIR Object Identifier", "coding": [{"system": "http://terminology.hl7.org/CodeSystem/v2-0203", "code": "ACSN", "display": "Accession ID"}]}, "system": "https://fevir.net/FOI", "value": "346485", "assigner": {"display": "Computable Publishing LLC"}}, {"use": "official", "system": "https://euclinicaltrials.eu/ctis", "value": "2024-516402-32-00"}, {"use": "official", "system": "https://clinicaltrials.gov", "value": "NCT05726916"}], "name": "CTIS_2024_516402_32_00_FHIR_Transform", "title": "Eculizumab in hypertensive emergency-associated hemolytic uremic syndrome: a randomized multicenter controlled trial (HYPERSHU)", "label": [{"type": {"coding": [{"system": "http://hl7.org/fhir/title-type", "code": "primary", "display": "Primary title"}], "text": "Public title"}, "value": "Eculizumab in hypertensive emergency-associated hemolytic uremic syndrome: a randomized multicenter controlled trial (HYPERSHU)"}, {"type": {"coding": [{"system": "http://hl7.org/fhir/title-type", "code": "short-title", "display": "Short title"}]}, "value": "APHP211039"}, {"type": {"coding": [{"system": "http://hl7.org/fhir/title-type", "code": "language", "display": "Different language"}], "text": "French"}, "value": "Eculizumab dans le syndrome h\u00e9molytique et ur\u00e9mique associ\u00e9 \u00e0 l'urgence hypertensive: essai contr\u00f4l\u00e9 multicentrique randomis\u00e9 (HYPERSHU)"}, {"type": {"coding": [{"system": "http://hl7.org/fhir/title-type", "code": "language", "display": "Different language"}], "text": "French of public title"}, "value": "Eculizumab dans le syndrome h\u00e9molytique et ur\u00e9mique associ\u00e9 \u00e0 l'urgence hypertensive: essai contr\u00f4l\u00e9 multicentrique randomis\u00e9 (HYPERSHU)"}], "relatesTo": [{"type": "transforms", "targetUri": "https://euclinicaltrials.eu/ctis-public-api/retrieve/2024-516402-32-00"}, {"type": "transformed-with", "targetAttachment": {"url": "https://fevir.net", "title": "Computable Publishing\u00ae: CTIS-to-FEvIR Converter"}}], "status": "active", "condition": [{"text": "Adult patients with aHUS associated with HE and severe kidney involvement (needing dialysis or serum creatinine \u2265 354\u03bcM)"}, {"coding": [{"system": "https://www.meddra.org", "version": "20.1", "code": "10079840", "display": "Atypical haemolytic uraemic syndrome"}]}], "period": {"start": "2024-02-13", "end": "2027-02-13"}, "associatedParty": [{"name": "DGOS - French Ministry of Health", "role": {"coding": [{"system": "http://hl7.org/fhir/research-study-party-role", "code": "funding-source", "display": "Funding source"}]}}, {"name": "Assistance Publique Hopitaux De Paris", "role": {"coding": [{"system": "http://hl7.org/fhir/research-study-party-role", "code": "sponsor", "display": "Sponsor"}]}, "party": {"reference": "#organization-554686", "type": "Organization", "display": "Assistance Publique Hopitaux De Paris"}}, {"name": "Dr El Karoui Khalil", "role": {"coding": [{"system": "http://hl7.org/fhir/research-study-party-role", "code": "general-contact", "display": "General contact"}], "text": "public contact"}, "party": {"reference": "#contact-190857", "type": "PractitionerRole", "display": "Dr El Karoui Khalil khalil.el-karoui@aphp.fr"}}, {"name": "Dr El Karoui Khalil", "role": {"coding": [{"system": "http://hl7.org/fhir/research-study-party-role", "code": "general-contact", "display": "General contact"}], "text": "scientific contact"}, "party": {"reference": "#contact-190858", "type": "PractitionerRole", "display": "Dr El Karoui Khalil khalil.el-karoui@aphp.fr"}}], "progressStatus": [{"state": {"coding": [{"system": "http://hl7.org/fhir/research-study-status", "code": "overall-study", "display": "Overall study"}]}, "actual": false, "period": {"start": "2024-02-13", "end": "2027-02-13"}}], "recruitment": {"eligibility": {"type": "Group", "identifier": {"type": {"text": "FEvIR Linking Identifier"}, "system": "https://fevir.net/FLI", "value": "CTIS2024-516402-32-00 Eligibility Criteria", "assigner": {"display": "Computable Publishing LLC"}}, "display": "CTIS2024-516402-32-00 Eligibility Criteria", "reference": "Group/346486"}}, "objective": [{"name": "To demonstrate the efficacy of early Eculizumab administration added on standard of care BP control on dialysis-dependence at month 6 in HEaHUS patients with severely impaired initial renal function.", "type": {"coding": [{"system": "http://hl7.org/fhir/research-study-objective-type", "code": "primary", "display": "Primary"}]}}, {"name": "To evaluate the role of complement biomarkers in predicting therapeutic response", "type": {"coding": [{"system": "http://hl7.org/fhir/research-study-objective-type", "code": "secondary", "display": "Secondary"}]}}, {"name": "To evaluate the frequency of complement genetic rare variants in this population", "type": {"coding": [{"system": "http://hl7.org/fhir/research-study-objective-type", "code": "secondary", "display": "Secondary"}]}}, {"name": "To evaluate the efficacy of early eculizumab administration added on standard of care BP control on 3-month (W13) and 12 months renal replacement therapy risk", "type": {"coding": [{"system": "http://hl7.org/fhir/research-study-objective-type", "code": "secondary", "display": "Secondary"}]}}, {"name": "To evaluate the frequency of severe infections in both groups", "type": {"coding": [{"system": "http://hl7.org/fhir/research-study-objective-type", "code": "secondary", "display": "Secondary"}]}}, {"name": "To evaluate the time to resolution of hemolysis and acute dialysis", "type": {"coding": [{"system": "http://hl7.org/fhir/research-study-objective-type", "code": "secondary", "display": "Secondary"}]}}, {"name": "To evaluate the frequency of histological lesions and their prognosis (if kidney biopsy is performed)", "type": {"coding": [{"system": "http://hl7.org/fhir/research-study-objective-type", "code": "secondary", "display": "Secondary"}]}}, {"name": "To evaluate the medico-economic impact of Eculizumab", "type": {"coding": [{"system": "http://hl7.org/fhir/research-study-objective-type", "code": "secondary", "display": "Secondary"}]}}, {"name": "Objective of the first ancillary study: A first ancillary study will include a pangenomic analysis aimed at identifying new genetic variants associated with HE-aHUS. This ancillary study will be based on the residual genetic samples already scheduled in the biocollection. This ancillary study will be coordinated by Pr L. Mesnard (Nephrology Department, Tenon Hospital, Paris) and performed according to an already available funding", "type": {"coding": [{"system": "http://hl7.org/fhir/research-study-objective-type", "code": "secondary", "display": "Secondary"}]}}, {"name": "Objective of any other potential ancillary study: biological collection For any other ancillary study: residual samples will be stored for a biological collection to identify new potential genetic and pathophysiological determinants of HE-aHUS (Department of Immunobiology, HEGP, Dr Fr\u00e9meaux-Bacchi).", "type": {"coding": [{"system": "http://hl7.org/fhir/research-study-objective-type", "code": "secondary", "display": "Secondary"}]}}, {"name": "Primary Endpoints", "type": {"coding": [{"system": "http://hl7.org/fhir/research-study-objective-type", "code": "primary", "display": "Primary"}]}, "outcomeMeasure": [{"name": "Response to therapy, defined by the absence of any of the following events: i) at 6-month follow-up: persistent renal replacement therapy, eGFR<15ml/mn/1,73m2, or patient death; ii) at W2 : persistent hemolysis despite well conducted antihypertensive therapy. Any Eculizumab rescue in the control group will be considered as a failure.", "type": {"coding": [{"system": "http://hl7.org/fhir/research-study-objective-type", "code": "primary", "display": "Primary"}]}, "endpoint": {"type": "EvidenceVariable", "identifier": {"type": {"text": "FEvIR Linking Identifier"}, "system": "https://fevir.net/FLI", "value": "CTIS2024-516402-32-00 Primary Outcome 1", "assigner": {"display": "Computable Publishing LLC"}}, "display": "CTIS2024-516402-32-00 Primary Outcome 1", "reference": "EvidenceVariable/346487"}}]}, {"name": "Secondary Endpoints", "type": {"coding": [{"system": "http://hl7.org/fhir/research-study-objective-type", "code": "secondary", "display": "Secondary"}]}, "outcomeMeasure": [{"name": "Prognosis role of repeat complement biomarkers (W1, W4, W13)", "type": {"coding": [{"system": "http://hl7.org/fhir/research-study-objective-type", "code": "secondary", "display": "Secondary"}]}, "endpoint": {"type": "EvidenceVariable", "identifier": {"type": {"text": "FEvIR Linking Identifier"}, "system": "https://fevir.net/FLI", "value": "CTIS2024-516402-32-00 Secondary Outcome 1", "assigner": {"display": "Computable Publishing LLC"}}, "display": "CTIS2024-516402-32-00 Secondary Outcome 1", "reference": "EvidenceVariable/346488"}}, {"name": "Frequency of Complement genetic rare variants", "type": {"coding": [{"system": "http://hl7.org/fhir/research-study-objective-type", "code": "secondary", "display": "Secondary"}]}, "endpoint": {"type": "EvidenceVariable", "identifier": {"type": {"text": "FEvIR Linking Identifier"}, "system": "https://fevir.net/FLI", "value": "CTIS2024-516402-32-00 Secondary Outcome 2", "assigner": {"display": "Computable Publishing LLC"}}, "display": "CTIS2024-516402-32-00 Secondary Outcome 2", "reference": "EvidenceVariable/346489"}}, {"name": "Renal replacement therapy rates at months 3 and 12 follow-up", "type": {"coding": [{"system": "http://hl7.org/fhir/research-study-objective-type", "code": "secondary", "display": "Secondary"}]}, "endpoint": {"type": "EvidenceVariable", "identifier": {"type": {"text": "FEvIR Linking Identifier"}, "system": "https://fevir.net/FLI", "value": "CTIS2024-516402-32-00 Secondary Outcome 3", "assigner": {"display": "Computable Publishing LLC"}}, "display": "CTIS2024-516402-32-00 Secondary Outcome 3", "reference": "EvidenceVariable/346490"}}, {"name": "Frequency of severe infections (defined by the need for hospitalization)", "type": {"coding": [{"system": "http://hl7.org/fhir/research-study-objective-type", "code": "secondary", "display": "Secondary"}]}, "endpoint": {"type": "EvidenceVariable", "identifier": {"type": {"text": "FEvIR Linking Identifier"}, "system": "https://fevir.net/FLI", "value": "CTIS2024-516402-32-00 Secondary Outcome 4", "assigner": {"display": "Computable Publishing LLC"}}, "display": "CTIS2024-516402-32-00 Secondary Outcome 4", "reference": "EvidenceVariable/346491"}}, {"name": "Time to resolution of haemolysis", "type": {"coding": [{"system": "http://hl7.org/fhir/research-study-objective-type", "code": "secondary", "display": "Secondary"}]}, "endpoint": {"type": "EvidenceVariable", "identifier": {"type": {"text": "FEvIR Linking Identifier"}, "system": "https://fevir.net/FLI", "value": "CTIS2024-516402-32-00 Secondary Outcome 5", "assigner": {"display": "Computable Publishing LLC"}}, "display": "CTIS2024-516402-32-00 Secondary Outcome 5", "reference": "EvidenceVariable/346492"}}, {"name": "Time to resolution of renal replacement therapy", "type": {"coding": [{"system": "http://hl7.org/fhir/research-study-objective-type", "code": "secondary", "display": "Secondary"}]}, "endpoint": {"type": "EvidenceVariable", "identifier": {"type": {"text": "FEvIR Linking Identifier"}, "system": "https://fevir.net/FLI", "value": "CTIS2024-516402-32-00 Secondary Outcome 6", "assigner": {"display": "Computable Publishing LLC"}}, "display": "CTIS2024-516402-32-00 Secondary Outcome 6", "reference": "EvidenceVariable/346493"}}, {"name": "Frequency and prognostic role of kidney lesions (glomerular and arteriolar microthromboses), glomerulosclerosis and kidney fibrosis if kidney biopsy is performed", "type": {"coding": [{"system": "http://hl7.org/fhir/research-study-objective-type", "code": "secondary", "display": "Secondary"}]}, "endpoint": {"type": "EvidenceVariable", "identifier": {"type": {"text": "FEvIR Linking Identifier"}, "system": "https://fevir.net/FLI", "value": "CTIS2024-516402-32-00 Secondary Outcome 7", "assigner": {"display": "Computable Publishing LLC"}}, "display": "CTIS2024-516402-32-00 Secondary Outcome 7", "reference": "EvidenceVariable/346494"}}, {"name": "Costs relating to renal replacement therapy (or lack of), Eculizumab and other antihypertensive treatments, hospitalizations", "type": {"coding": [{"system": "http://hl7.org/fhir/research-study-objective-type", "code": "secondary", "display": "Secondary"}]}, "endpoint": {"type": "EvidenceVariable", "identifier": {"type": {"text": "FEvIR Linking Identifier"}, "system": "https://fevir.net/FLI", "value": "CTIS2024-516402-32-00 Secondary Outcome 8", "assigner": {"display": "Computable Publishing LLC"}}, "display": "CTIS2024-516402-32-00 Secondary Outcome 8", "reference": "EvidenceVariable/346495"}}]}], "url": "https://fevir.net/resources/ResearchStudy/346485", "id": "346485", "citeAs": "Eculizumab in hypertensive emergency-associated hemolytic uremic syndrome: a randomized multicenter controlled trial (HYPERSHU) [Database Entry: FHIR ResearchStudy Resource]. Contributors: Computable Publishing\u00ae: CTIS-to-FEvIR Converter [Authors/Creators]. In: Fast Evidence Interoperability Resources (FEvIR) Platform, FOI 346485. Revised 2025-07-17. Available at: https://fevir.net/resources/ResearchStudy/346485. Computable resource at: https://fevir.net/resources/ResearchStudy/346485#json."}